,acc_x,acc_y,acc_z,gyro_x,gyro_y,gyro_z
0,-0.01604,0.014,-1.00258,-0.00557,0.00808,0.00731
1,-0.01616,0.01351,-1.00231,-0.00678,0.00822,0.00535
2,-0.01447,0.01307,-1.00162,-0.00665,0.00667,0.00601
3,-0.01553,0.01311,-1.0023,-0.00683,0.01167,0.00827
4,-0.01403,0.01421,-1.00226,-0.00543,0.00654,0.00272
5,-0.01509,0.01296,-1.00273,-0.0058,0.00604,0.00765
6,-0.01542,0.01538,-1.00246,-0.00645,0.00695,0.00659
7,-0.01518,0.01349,-1.00015,-0.00892,0.00769,0.00607
8,-0.01509,0.01225,-1.00131,-0.00413,0.01028,0.00787
9,-0.01392,0.01352,-1.00171,-0.00523,0.00758,0.00468
10,-0.01485,0.01178,-1.00185,-0.00581,0.00743,0.00646
11,-0.01527,0.01357,-1.00201,-0.00512,0.00897,0.00719
12,-0.01514,0.01452,-1.0012,-0.00391,0.00807,0.00573
13,-0.01542,0.01453,-1.00188,-0.00553,0.01029,0.00653
14,-0.01484,0.0135,-1.0033,-0.00503,0.00745,0.00559
15,-0.01557,0.01251,-1.00344,-0.00443,0.00871,0.00719
16,-0.01436,0.01314,-1.00096,-0.00383,0.00911,0.00485
17,-0.01456,0.0133,-1.00212,-0.00569,0.00603,0.00565
18,-0.01436,0.0117,-1.00395,-0.00464,0.00645,0.00617
19,-0.01457,0.01233,-1.00424,-0.00418,0.00669,0.00485
20,-0.01622,0.01355,-1.00137,-0.00583,0.00902,0.00927
21,-0.0161,0.01413,-1.00305,-0.00527,0.00799,0.00402
22,-0.01512,0.01256,-1.00411,-0.00553,0.00829,0.00568
23,-0.01503,0.01183,-1.00321,-0.00433,0.00796,0.00807
24,-0.01357,0.01406,-1.00038,-0.00764,0.00993,0.00334
25,-0.01347,0.0125,-1.0004,-0.00694,0.00738,0.00887
26,-0.01422,0.01303,-1.00384,-0.00676,0.00806,0.00741
27,-0.01485,0.01384,-1.00427,-0.00639,0.0077,0.0064
28,-0.01453,0.01212,-1.00044,-0.00773,0.00701,0.00655
29,-0.01562,0.01414,-1.00126,-0.00473,0.00689,0.00619
30,-0.01538,0.01268,-1.00261,-0.00505,0.00741,0.00701
31,-0.01543,0.01256,-0.99987,-0.00703,0.00909,0.00866
32,-0.01678,0.01328,-1.00167,-0.00566,0.00606,0.00638
33,-0.01597,0.01437,-1.00358,-0.00466,0.00884,0.00613
34,-0.01578,0.01433,-1.00298,-0.00488,0.00968,0.00838
35,-0.01544,0.0142,-1.00399,-0.00521,0.00867,0.00577
36,-0.01491,0.01376,-1.00397,-0.00617,0.0065,0.00423
37,-0.01506,0.01277,-1.00309,-0.00681,0.00439,0.00833
38,-0.01411,0.01295,-1.00178,-0.00442,0.00722,0.00806
39,-0.01386,0.01297,-1.00277,-0.00614,0.0063,0.00846
40,-0.01592,0.01324,-1.00154,-0.00701,0.0073,0.00434
41,-0.01509,0.01296,-1.00312,-0.00653,0.00483,0.00595
42,-0.01522,0.01471,-1.00346,-0.0068,0.00956,0.00531
43,-0.01436,0.01328,-1.00254,-0.00635,0.00677,0.00629
44,-0.01464,0.0129,-1.00161,-0.00552,0.0083,0.00657
45,-0.01527,0.0139,-1.00361,-0.00393,0.00605,0.00518
46,-0.01397,0.01317,-1.00443,-0.00557,0.00708,0.00592
47,-0.0146,0.01374,-1.00273,-0.00665,0.00843,0.00829
48,-0.01566,0.01437,-1.00045,-0.00415,0.00803,0.00591
49,-0.01491,0.01319,-1.00259,-0.00808,0.00697,0.00782
50,-0.01508,0.01247,-1.00496,-0.00653,0.00602,0.00624
51,-0.0145,0.01316,-1.003,-0.00498,0.00816,0.00739
52,-0.0148,0.01233,-1.00127,-0.00783,0.00507,0.00967
53,-0.01467,0.01404,-1.00204,-0.00604,0.00718,0.00511
54,-0.01521,0.01419,-1.00302,-0.00642,0.00725,0.00381
55,-0.01456,0.01361,-1.0029,-0.00466,0.00478,0.00437
56,-0.01467,0.0139,-1.00108,-0.00752,0.00794,0.0099
57,-0.01614,0.01312,-1.00075,-0.00354,0.00508,0.00696
58,-0.01662,0.01356,-1.00311,-0.00403,0.00637,0.00707
59,-0.01511,0.01369,-1.00189,-0.00649,0.00746,0.00636
60,-0.01384,0.01275,-1.00172,-0.00682,0.00376,0.00549
61,-0.01351,0.01362,-1.00091,-0.0062,0.00658,0.00644
62,-0.01459,0.0145,-1.00063,-0.0039,0.00683,0.00823
63,-0.01489,0.01421,-1.00044,-0.00686,0.005,0.00567
64,-0.01494,0.01368,-1.00198,-0.00644,0.00508,0.00564
65,-0.01655,0.01244,-1.002,-0.00584,0.00443,0.00486
66,-0.01581,0.01378,-1.00175,-0.00655,0.00628,0.00604
67,-0.01472,0.01228,-1.00332,-0.00835,0.01145,0.01365
68,-0.01794,0.01296,-1.00211,-0.00393,0.00624,-0.00229
69,-0.01318,0.01763,-1.00264,-0.00445,0.0067,0.00679
70,-0.01461,0.01003,-1.00235,-0.00624,0.00563,0.00509
71,-0.01414,0.01469,-1.00295,-0.00476,0.00484,0.00898
72,-0.0079,0.01435,-1.00054,-0.00442,0.01367,-0.00128
73,0.04774,0.01303,-0.98878,0.00465,0.04376,0.00864
74,0.11676,0.01557,-1.01213,-0.01286,0.04555,0.01237
75,0.18164,0.00645,-0.98794,-0.10412,0.14368,0.04758
76,0.23491,-0.02553,-1.05233,-0.02502,-0.00536,0.04938
77,0.28458,0.04573,-0.96477,0.0273,-0.05796,-0.00293
78,0.35356,0.04622,-0.95655,-0.00787,0.13266,0.0332
79,0.33838,0.04429,-1.00036,0.01595,-0.01733,-0.03471
80,0.27209,0.02396,-1.10007,-0.01861,-0.17453,-0.01598
81,0.13098,-0.01688,-1.02314,0.04385,-0.01738,0.00811
82,0.13226,0.01122,-0.8644,-0.00614,0.10401,-0.02956
83,0.0027,-0.0038,-1.08601,-0.0624,-0.22598,0.03535
84,-0.11299,0.03392,-1.08854,-0.02853,0.01727,-0.08116
85,-0.15893,0.02056,-0.8471,-0.0211,0.08074,-0.04119
86,-0.23905,-0.03863,-1.02627,-0.03419,-0.08527,0.07944
87,-0.24392,-0.0077,-1.13076,0.0588,-0.08563,0.00893
88,-0.1481,0.06508,-0.89863,-0.01384,0.08301,-0.06715
89,0.03433,0.02931,-1.02148,-0.03057,0.10332,0.01215
90,0.13942,0.00626,-1.06351,-0.10559,0.00567,0.04428
91,0.16292,0.01195,-1.07033,0.00896,0.04136,-0.00767
92,0.23815,0.01555,-0.86178,0.06572,0.16642,0.00157
93,0.20802,0.02637,-1.02393,-0.04204,-0.0372,0.02854
94,0.11421,0.04623,-1.15282,0.02963,-0.07169,-0.06878
95,0.07029,0.00894,-0.83605,0.05619,0.12732,0.01678
96,-0.03966,-0.01719,-1.01434,0.00958,-0.03114,0.05641
97,-0.16761,0.0516,-1.14732,-0.02167,-0.02564,-0.05485
98,-0.16465,0.03546,-0.86374,0.00391,0.11618,-0.03635
99,-0.20092,-0.01719,-0.97111,-0.03749,-0.00298,0.06105
100,-0.20386,0.02619,-1.11409,0.08102,-0.04522,-0.03547
101,-0.1112,0.02723,-0.9419,0.02033,0.11873,-0.00085
102,-0.01376,-0.05409,-0.94367,-0.03413,0.13218,0.12204
103,0.07053,0.01804,-1.02714,-0.03999,0.04967,0.03907
104,0.15898,0.04747,-1.07061,-0.06218,-0.01099,-0.05467
105,0.19026,0.0241,-0.9626,0.0608,0.08377,-0.01892
106,0.17295,-0.00495,-0.94732,0.00416,0.09323,0.00665
107,0.12047,0.01902,-1.12434,0.04367,-0.2632,-0.01267
108,0.06024,0.00731,-0.9493,0.03574,0.05649,-0.03704
109,0.01202,-0.01022,-0.90282,0.1123,0.08666,0.0523
110,-0.1234,0.00348,-1.18,0.06928,-0.10048,0.0394
111,-0.1426,0.05479,-0.96721,-0.0117,0.04458,-0.04082
112,-0.13918,0.00079,-0.90164,0.02775,0.07005,0.05869
113,-0.09974,0.08952,-0.9747,0.03095,0.03109,-0.10363
114,-0.00837,0.01491,-0.91197,-0.05189,0.12095,0.03532
115,0.00516,-0.04959,-1.05465,-0.05773,-0.02635,0.09575
116,0.06836,0.04002,-1.10284,0.02231,-0.03179,-0.05316
117,0.18064,0.04137,-0.8833,0.02576,0.06432,-0.03947
118,0.15864,-0.01389,-0.97901,-0.06734,0.03818,0.07322
119,0.10616,0.01845,-1.15656,0.01858,-0.1455,-0.0374
120,0.09023,0.02476,-0.91346,0.01552,0.04039,-0.03502
121,0.0267,-0.01885,-0.95761,-0.052,0.05268,0.06845
122,-0.09396,0.02606,-1.16041,0.05688,-0.21263,-0.04386
123,-0.07045,0.05839,-0.87855,0.06072,0.09629,-0.13379
124,-0.13702,-0.03167,-0.97657,-0.08894,0.00773,0.08903
125,-0.18539,-0.04626,-1.08778,0.0555,-0.11226,0.05549
126,-0.07945,0.07197,-0.94897,0.02425,0.06809,-0.08988
127,-0.05871,-0.0158,-0.9569,-0.0508,0.09512,0.10326
128,-0.04234,-0.0411,-1.08216,-0.1016,-0.03991,0.10736
129,0.06366,0.0993,-1.02911,0.05008,0.04755,-0.1123
130,0.13274,0.00354,-0.89501,0.00066,0.06723,0.03868
131,0.10712,-0.02547,-1.04218,-0.08564,-0.03002,0.10895
132,0.11361,0.08525,-1.1015,0.0578,-0.10825,-0.13602
133,0.10617,0.03436,-0.87767,0.06502,0.05428,-0.03193
134,0.02753,-0.04173,-1.04806,-0.16638,-0.03559,0.09136
135,-0.02387,0.05263,-1.07695,0.03705,-0.14428,-0.14256
136,-0.04982,0.00871,-0.89735,0.0257,0.07216,-0.00906
137,-0.14696,-0.05704,-1.03444,-0.08946,-0.0114,0.14776
138,-0.09292,-0.07759,-1.00416,-0.06945,0.03905,0.16972
139,-0.03634,0.01034,-1.05428,-0.01057,0.02803,-0.00258
140,0.07723,0.08355,-0.96824,0.02881,0.01718,-0.06064
141,0.08199,-0.00635,-0.95211,0.01424,0.11703,0.05093
142,0.06929,0.00318,-1.07668,-0.08975,0.03106,0.04579
143,0.12838,0.04761,-0.99279,0.08614,-0.06325,-0.08726
144,0.07652,-0.00306,-0.95361,0.03165,0.04397,0.04778
145,0.0174,0.00162,-1.07368,-0.13779,0.00927,0.03625
146,0.01195,0.0377,-1.00431,0.10561,-0.08098,-0.12117
147,-0.03951,-0.00149,-0.94661,0.00767,-0.0372,0.03717
148,-0.11236,-0.02688,-1.04901,-0.09706,0.0176,0.07781
149,-0.07021,0.04828,-1.00913,0.15741,-0.08166,-0.14771
150,-0.0995,0.01191,-0.96001,0.01593,0.00811,0.07428
151,-0.11136,-0.04059,-1.02985,-0.08534,0.08482,0.09912
152,-0.01048,0.07032,-0.98012,0.07297,0.01121,-0.09526
153,0.01578,0.03602,-0.99281,0.01966,0.0709,-0.02721
154,0.01661,-0.05725,-1.03775,-0.12833,-0.019,0.10529
155,0.08721,0.00513,-0.9948,-0.04768,0.0368,-0.02773
156,0.09756,0.03389,-0.99733,0.12003,0.00646,-0.04775
157,0.05374,0.00825,-1.01797,-0.15932,-0.04674,0.07727
158,0.05286,0.04501,-1.01489,-0.0665,0.0237,-0.04087
159,0.03053,0.03115,-1.00605,0.13404,-0.10243,-0.06514
160,-0.04742,-0.01693,-0.98514,-0.09279,-0.07856,0.07109
161,-0.05475,0.03723,-1.01735,-0.07103,0.01411,-0.04237
162,-0.07529,-0.02428,-1.00901,0.11859,-0.09307,0.02078
163,-0.11015,-0.02668,-1.00892,-0.02299,-0.10047,0.08244
164,-0.07289,0.0777,-0.98065,-0.07049,0.06007,-0.08731
165,-0.03436,-0.03465,-0.97012,0.09537,0.02919,0.04409
166,-0.04894,-0.00412,-1.03637,0.0126,0.00363,0.04145
167,0.01655,0.03709,-1.00118,-0.06597,0.06405,0.03153
168,0.06855,0.0446,-1.03971,0.06196,-0.08091,-0.02327
169,0.06102,0.03758,-1.01294,-0.10902,0.0178,0.00451
170,0.09006,0.00653,-0.97323,-0.03506,0.05828,-0.04472
171,0.02002,-0.02048,-1.03984,0.1239,-0.10176,0.0047
172,-0.04002,0.01452,-0.99165,-0.0583,-0.02154,0.03229
173,-0.01421,0.02605,-0.98987,-0.03642,0.06086,-0.05116
174,-0.0858,-0.00814,-1.04759,0.11821,-0.12476,0.01385
175,-0.11717,-0.01648,-1.00011,0.02099,-0.06037,0.07716
176,-0.04527,0.05121,-0.9508,-0.00415,0.08108,-0.07565
177,-0.05874,-0.03629,-1.00586,0.0726,0.00273,0.07762
178,-0.06654,0.00221,-1.058,-0.0936,-0.06581,0.08612
179,0.03604,0.07281,-0.98619,-0.07806,0.03888,-0.05643
180,0.06577,-0.00591,-0.9541,0.01095,0.04134,0.00129
181,0.02437,-0.00198,-1.08,0.00608,-0.12196,0.03379
182,0.0671,0.02881,-0.97277,-0.08063,0.06404,-0.00733
183,0.09571,-0.00479,-0.96015,0.01957,0.10058,-0.01395
184,0.02302,0.01448,-1.06814,0.06354,-0.16613,-0.00896
185,-0.02188,0.036,-0.9929,-0.0339,-0.01666,0.02507
186,0.02595,0.01819,-0.93381,-0.03233,0.11426,-0.03866
187,-0.06331,-0.00777,-1.07574,0.09256,-0.12546,0.01173
188,-0.12039,0.00338,-1.00542,0.02648,-0.05102,0.04678
189,-0.0249,0.06276,-0.90602,-0.0038,0.09437,-0.07035
190,-0.07284,-0.02164,-1.05994,0.08852,-0.10008,0.04281
191,-0.10415,-0.01064,-1.04676,-0.01284,-0.02921,0.0667
192,0.02829,-0.03285,-0.97824,0.03795,0.04538,0.02668
193,0.00059,0.01315,-1.12196,-0.10452,-0.0762,0.03333
194,0.07251,0.02167,-0.93562,-0.07663,0.05121,0.00684
195,0.09036,0.00038,-0.95845,0.01555,0.06687,-0.00854
196,0.01624,0.03469,-1.10432,0.03223,-0.17044,-0.00489
197,0.01312,0.04475,-0.96278,-0.07194,0.02341,-0.02873
198,0.03113,0.00443,-0.94693,-0.0009,0.09944,-0.02351
199,-0.06217,-0.03875,-1.08428,0.06289,-0.13005,0.07372
200,-0.07924,0.03023,-0.99844,-0.04711,-0.0518,-0.01751
201,-0.04911,0.04993,-0.93355,-0.00749,0.04341,-0.07477
202,-0.16564,-0.06134,-1.04774,0.15219,-0.11333,0.09772
203,-0.19551,-0.0059,-1.08002,0.10729,-0.14126,0.03748
204,-0.14876,0.06298,-0.91178,-0.09521,0.11826,-0.04317
205,-0.1627,0.02071,-0.91616,-0.0611,0.10812,0.04478
206,-0.13687,-0.00693,-1.09317,0.11947,-0.02648,-0.00878
207,-0.0783,0.07148,-1.02179,0.04878,-0.05407,-0.07362
208,-0.05317,-0.05647,-0.98631,-0.08589,0.08447,0.09346
209,0.02015,-0.05484,-0.95992,-0.08608,0.08364,0.06148
210,0.08631,0.05046,-1.00088,-0.02291,0.06133,-0.02043
211,0.08492,0.07444,-1.03053,-0.01667,0.00107,-0.03931
212,0.02188,0.03423,-1.02586,0.02326,-0.05672,-0.01857
213,-0.03823,-0.04579,-0.97521,-0.02677,-0.00026,0.09829
214,-0.0602,0.00842,-1.0004,-0.03589,0.01837,0.0097
215,-0.12074,0.03978,-0.99864,0.01164,0.00375,-0.02327
216,-0.18013,0.02689,-1.05101,0.12342,-0.07579,0.0099
217,-0.2044,0.01947,-0.98216,0.06057,-0.02891,-0.00482
218,-0.17498,0.00769,-0.96472,-0.02101,0.02345,0.0022
219,-0.14287,-0.03628,-1.00207,-0.06934,0.03242,0.06432
220,-0.0703,-0.03757,-1.01641,-0.03444,0.02941,0.03389
221,0.00304,0.01233,-1.00305,-0.03113,0.0212,0.01317
222,0.05916,0.04278,-0.99152,-0.0197,0.03477,-0.00699
223,0.10624,0.05726,-1.00034,-0.01869,0.03079,-0.02412
224,0.08716,0.01834,-1.00395,0.00177,0.02834,0.01416
225,0.04395,0.01458,-1.01971,0.02676,-0.00919,-0.01889
226,-0.06075,-0.02801,-0.98482,-0.00767,0.0021,0.04329
227,-0.10816,-0.03504,-1.01925,-0.06991,-0.01147,0.0607
228,-0.0591,0.00284,-1.01236,-0.06864,0.02574,0.07278
229,-0.02213,0.02842,-0.9843,-0.01384,0.01405,0.07118
230,-0.01111,0.04715,-0.98768,-0.00411,0.02055,0.01631
231,-0.00234,0.05565,-0.99894,0.00509,0.01539,-0.02079
232,-0.02228,0.03473,-1.00978,0.03457,0.02313,-0.06052
233,-0.03192,0.05219,-1.01048,0.04625,-0.00437,-0.08749
234,-0.02391,0.02283,-0.9989,0.02528,-0.0026,-0.10853
235,-0.02458,-0.00657,-0.99934,0.0057,0.0043,-0.10376
236,-0.0318,-0.03743,-0.99913,-0.0044,0.00615,-0.04064
237,-0.05222,-0.06368,-1.01243,-0.04935,-0.00867,0.07206
238,-0.04067,-0.01907,-1.00668,-0.04413,0.00177,0.07991
239,-0.02244,-0.00296,-0.98783,-0.03064,0.01682,0.09638
240,-0.01565,0.01832,-0.9986,-0.01402,0.00863,0.05163
241,-0.0179,0.03311,-1.00278,-0.0077,0.02003,0.03031
242,-0.0133,0.04175,-0.99653,-0.00533,0.02576,0.02006
243,-0.01292,0.03553,-1.00262,-0.00255,0.02053,0.01499
244,-0.01728,0.02662,-1.01156,0.01274,0.00843,-0.02743
245,-0.02845,0.03733,-1.00883,0.01725,0.00238,-0.07104
246,-0.02854,0.02323,-1.00109,0.01808,-0.00829,-0.09941
247,-0.02289,0.01616,-0.99982,0.00727,-0.00814,-0.11117
248,-0.03396,0.00075,-0.99593,-0.01251,0.0152,-0.074
249,-0.0343,-0.00563,-1.00018,-0.015,0.01807,-0.04095
250,-0.0404,-0.02117,-1.01368,-0.0054,0.00174,0.01182
251,-0.04765,-0.03552,-1.01233,-0.0282,-0.0017,0.05543
252,-0.03368,-0.0015,-1.00293,-0.03084,-0.00596,0.05436
253,-0.02628,0.00823,-0.99533,-0.02009,0.00109,0.05957
254,-0.02562,0.02051,-0.99886,-0.02306,0.0016,0.04166
255,-0.02144,0.03178,-1.0022,-0.01627,0.00901,0.00995
256,-0.02107,0.03281,-1.00072,-0.01537,0.01277,-0.0074
257,-0.02349,0.00612,-1.002,-0.00867,0.01384,0.00966
258,-0.01864,0.00189,-1.00244,-0.01111,0.01342,0.01217
259,-0.01205,0.0202,-0.99944,-0.00121,0.01458,0.00422
260,-0.0127,0.01631,-1.00398,-0.00694,0.01667,0.0023
261,-0.01634,0.00211,-1.00543,-0.00683,0.01092,0.01366
262,-0.01324,0.01396,-1.00107,-0.00716,0.01284,0.0053
263,-0.01058,0.02,-1.00163,-0.0068,0.01144,0.00526
264,-0.01277,0.00557,-1.003,-0.00719,0.01394,0.009
265,-0.01315,0.00886,-1.0028,-0.0073,0.01368,0.00296
266,-0.01439,0.01987,-1.002,-0.00286,0.01487,-0.00851
267,-0.02122,0.01626,-1.00597,0.00043,0.00854,-0.01929
268,-0.03187,0.02573,-1.00136,-0.00012,0.00696,-0.04514
269,-0.03581,0.04391,-0.99294,-0.01463,0.01143,-0.08044
270,-0.03126,0.03963,-1.00637,-0.00619,0.01078,-0.14059
271,-0.02635,0.01618,-1.00486,-0.0049,0.01054,-0.12532
272,-0.02438,-0.01539,-1.0056,-0.00145,0.00974,-0.08142
273,-0.02287,-0.03354,-1.00518,-0.00234,0.00767,-0.03231
274,-0.02123,-0.03664,-1.00473,-0.00832,0.00853,0.00224
275,-0.02227,-0.01156,-1.00436,-0.00623,0.0079,0.0132
276,-0.02251,0.02999,-1.00165,-0.0054,0.00869,-0.00043
277,-0.02544,0.0193,-1.00259,-0.00723,0.00761,1e-05
278,-0.02849,-0.0018,-1.00191,-0.00599,0.00452,0.01053
279,-0.04261,0.02271,-1.00794,-0.03405,-0.02727,-0.01005
280,-0.10398,0.07487,-0.98941,-0.04284,0.01326,-0.02128
281,-0.11115,0.1083,-1.00627,-0.04771,0.01446,0.02417
282,-0.08367,0.22767,-1.0097,-0.01195,-0.00997,-0.03326
283,-0.05211,0.27153,-1.0183,0.00329,-0.05362,-0.00993
284,-0.04706,0.2608,-1.0467,0.03374,-0.05423,0.07407
285,-0.05202,0.19779,-0.88405,-0.0574,0.10389,0.22169
286,0.00111,0.35417,-0.98327,-0.11094,0.05476,0.00293
287,0.02548,0.28614,-1.12553,0.1453,-0.02442,0.00072
288,0.07184,0.1864,-0.85908,-0.01486,0.22878,-0.05199
289,0.05325,0.19179,-0.988,-0.04567,0.02207,-0.09847
290,-0.03897,-0.04487,-1.14032,-0.07309,-0.13855,0.12791
291,0.01588,-0.0491,-0.92934,-0.1222,0.16241,0.02486
292,0.09834,0.03778,-0.95955,0.05667,0.06586,-0.17099
293,0.02077,-0.14389,-1.04342,0.14468,-0.05435,0.01433
294,-0.0135,-0.19715,-1.0553,-0.09523,-0.05516,0.12898
295,0.02341,-0.04007,-0.95837,-0.12176,0.10942,-0.0845
296,0.01551,0.00487,-0.98957,0.12947,-0.01242,-0.03553
297,-0.0537,-0.04459,-1.01662,0.10181,-0.04579,0.12452
298,-0.02667,0.11594,-1.0052,-0.12708,0.05509,0.03202
299,-0.01918,0.18602,-1.0342,-0.17731,0.04245,-0.02109
300,-0.04291,0.13563,-0.9589,0.07254,-0.03051,-0.01787
301,-0.03513,0.10431,-0.98035,0.06429,0.00802,0.04643
302,-0.00558,0.1682,-1.00431,-0.14572,0.03897,-0.0889
303,-0.04219,0.0324,-1.06543,0.13703,-0.03424,0.03237
304,0.00187,-0.02655,-0.89892,-0.00204,0.1148,0.03106
305,0.0557,0.04552,-1.0192,0.02117,0.08696,-0.10105
306,0.01903,-0.11449,-0.92316,-0.05962,0.06282,0.07541
307,0.01903,-0.11449,-0.92316,-0.05962,0.06282,0.07541
308,0.05913,0.01251,-0.96087,-0.03081,0.00931,-0.04907
309,0.01321,-0.02458,-1.08224,-0.00247,-0.05259,-0.04694
310,-0.046,-0.07723,-1.00313,0.03584,-0.00974,0.13539
311,-0.02014,0.0691,-0.93518,-0.16148,0.10643,-0.00351
312,0.00469,0.18101,-1.01842,0.04439,0.0399,-0.11039
313,-0.08254,-0.01026,-1.06567,0.02912,-0.07544,0.1427
314,-0.06281,0.06153,-0.94575,-0.08919,0.03081,0.11102
315,0.01755,0.21731,-0.96718,0.06276,-0.01361,-0.13232
316,-0.02746,0.00826,-1.05379,-0.01148,-0.03969,0.03587
317,-0.04779,0.00382,-0.99876,-0.14121,-0.00173,0.04732
318,0.06763,0.04526,-0.98652,0.06572,0.0146,-0.12286
319,0.01304,-0.06294,-1.00442,0.02711,-0.04009,0.03726
320,-0.01031,-0.05341,-1.02887,-0.21311,0.08018,0.06484
321,0.06143,0.00057,-0.98175,0.17548,-0.00283,-0.12295
322,0.00975,-0.02896,-0.9833,-0.01005,0.03801,0.00458
323,-0.04402,-0.01935,-1.06885,-0.21906,-0.01812,0.05834
324,0.01673,0.07394,-0.99099,0.06081,0.06366,-0.10736
325,-0.02041,0.03047,-0.93316,0.10034,-0.06503,0.0523
326,-0.07822,0.03362,-1.09793,-0.09957,-0.12477,0.08752
327,-0.0114,0.13573,-0.99729,0.05355,0.03835,-0.09274
328,-0.07417,0.0057,-1.13681,-0.13245,-0.06689,0.12136
329,-0.00582,0.03596,-1.02876,0.07755,-0.09625,-0.00567
330,0.0543,0.03083,-0.81537,-0.03068,0.05952,-0.07477
331,-0.02789,-0.02265,-1.18495,-0.16325,-0.04202,0.09552
332,0.00987,-0.01269,-1.03745,0.12587,-0.10522,-0.02248
333,0.05231,0.00168,-0.81701,-0.0301,0.08363,-0.01625
334,-0.02621,-0.03235,-1.18926,-0.15438,-0.0763,0.13279
335,0.02146,0.02048,-1.01017,0.12255,-0.13252,-0.09412
336,0.02573,0.05601,-0.82142,-0.06259,0.08732,-0.0448
337,-0.06794,-0.02345,-1.175,-0.17272,-0.02184,0.11716
338,-0.03243,0.03764,-1.02765,0.06699,-0.10639,-0.04857
339,-0.00144,0.06041,-0.82575,-0.04127,0.08496,0.00757
340,-0.06339,0.00173,-1.1465,-0.02924,-0.05738,0.05921
341,-0.03383,0.05905,-0.99634,-0.06671,0.00741,-0.04814
342,0.01522,0.06182,-0.90532,0.0799,-0.02018,-0.01275
343,-0.03624,-0.04354,-1.12774,0.02435,0.02504,0.06602
344,0.0123,-0.00507,-0.93228,-0.10669,0.02956,0.03112
345,0.03367,0.07672,-0.96775,0.02588,0.00367,-0.04308
346,0.01052,-0.07277,-1.10202,0.05434,-0.00712,0.04663
347,0.00334,0.00447,-0.92422,-0.20329,0.0735,-0.00421
348,0.02212,0.05926,-1.04684,-0.055,0.01512,-0.04545
349,-0.03173,-0.07968,-1.04369,0.10178,-0.07266,0.10469
350,-0.01179,0.0759,-0.91716,-0.13358,0.14682,-0.03671
351,-0.00154,0.06946,-1.03285,0.0682,0.08119,-0.05152
352,-0.07134,-0.07068,-1.02961,0.06026,0.07008,0.11134
353,-0.01718,0.09882,-0.9223,-0.01351,0.01154,-0.07975
354,-0.00782,0.04883,-1.05736,0.08199,-0.05447,-0.06721
355,0.01063,0.09506,-0.96543,-0.07837,0.00784,-0.04367
356,0.02883,-0.01363,-1.05528,0.06934,-0.06001,-0.00798
357,-0.02607,-0.01499,-0.96804,-0.10902,-0.04154,0.02249
358,0.03939,0.05462,-0.9923,0.06165,0.14909,-0.05212
359,0.04044,-0.05799,-1.00426,-0.00295,-0.01674,0.07571
360,-0.01024,0.05014,-1.02974,0.0235,-0.05981,-0.04793
361,0.0381,0.02027,-0.98643,0.18555,0.05391,-0.04832
362,-0.03712,-0.08373,-1.00168,-0.04661,-0.00685,0.13839
363,-0.02117,0.12568,-0.99796,-0.07758,0.01297,-0.10992
364,-0.00294,-0.00905,-1.00078,0.16121,0.09566,0.00854
365,-0.07605,-0.04195,-0.99641,0.01906,-0.06066,0.1051
366,-0.00368,0.13145,-1.03457,0.00289,-0.03113,-0.09419
367,-0.00096,-0.01515,-0.97675,0.07221,-0.05488,0.01666
368,-0.05012,0.0361,-0.98634,-0.14868,0.01665,0.00066
369,0.0096,0.05341,-1.05832,0.15727,0.04977,-0.07415
370,0.00966,-0.07246,-0.92045,-0.11546,-0.01306,0.09602
371,-0.02079,0.01519,-1.125,-0.10376,-0.0735,0.01843
372,0.04481,0.03251,-0.93659,0.11914,0.04443,-0.07624
373,0.01658,-0.02676,-0.93613,0.0374,-0.00993,0.04457
374,-0.02657,0.02737,-1.11984,0.11546,-0.03026,-0.01762
375,0.04685,-0.0138,-0.92354,0.09709,0.10649,0.00201
376,-0.03628,0.02871,-0.99698,-0.18609,-0.02398,0.01738
377,-0.00229,0.05702,-1.05041,0.03778,0.0182,-0.04225
378,0.00221,-0.05159,-0.93412,0.00721,0.01896,0.08277
379,-0.05122,0.08285,-1.04009,-0.06834,-0.00235,-0.03635
380,-0.01208,0.02483,-1.04348,0.19069,-0.00796,-0.00814
381,-0.02288,-0.02082,-0.93017,0.06124,-0.09964,0.03133
382,-0.01899,0.06186,-1.09267,0.02754,-0.02763,-0.06667
383,0.01494,-0.02221,-0.92997,0.07721,0.10023,0.0125
384,-0.01668,-0.00346,-1.01235,-0.09364,-0.00078,0.06696
385,0.01638,0.04114,-1.02781,0.07573,-0.02843,-0.0566
386,0.03567,-0.05574,-0.96633,-0.15744,-0.05875,0.09724
387,0.02077,0.00844,-0.97667,0.0984,0.07595,-0.04585
388,-0.01213,-0.06141,-0.9789,-0.05151,0.07935,0.15419
389,0.0046,0.11735,-1.01966,-0.04589,0.0045,-0.10401
390,0.01277,-0.04003,-1.01809,-0.06228,0.05666,0.06402
391,-0.03568,0.0191,-0.97593,-0.25493,0.00754,-0.00631
392,0.02208,0.08708,-1.02316,0.10533,-0.0159,-0.0813
393,-0.03176,-0.10186,-1.00108,0.08728,0.07229,0.18145
394,0.00128,0.12896,-0.94574,0.03228,0.07148,-0.11773
395,0.0002,-0.02362,-1.09585,-0.02865,-0.07603,0.04677
396,-0.03298,-0.05208,-0.92765,-0.14385,0.07058,0.06262
397,0.03883,0.07872,-1.00718,0.06399,0.0658,-0.08495
398,-0.02578,-0.07653,-1.05541,0.16979,-0.02577,0.13168
399,0.02554,0.04535,-0.89022,0.00893,0.11485,-0.08356
400,0.02023,-0.04444,-1.08706,0.06245,-0.06508,-0.00087
401,-0.04741,-0.12837,-1.01007,-0.01919,-0.02765,0.06201
402,0.03189,-0.06726,-0.91349,0.10359,0.03689,-0.11807
403,-0.04016,-0.19335,-1.07987,0.08462,-0.08469,0.04557
404,-0.08151,-0.20292,-1.0071,-0.07704,0.02811,0.06573
405,0.00899,-0.08688,-0.96907,0.02987,0.02073,-0.10961
406,-0.01274,-0.07915,-0.93671,-0.00809,0.05836,-0.05097
407,-0.08878,-0.16746,-1.15097,-0.07766,-0.10267,0.14806
408,-0.02375,-0.0306,-0.96002,0.02326,-0.05353,0.06567
409,0.0585,0.06781,-0.94994,0.03622,0.03116,-0.01794
410,0.0493,0.09101,-0.98085,-0.05689,0.08377,-0.08463
411,-0.00164,0.06164,-1.05731,-0.03532,-0.08694,-0.00732
412,-0.03624,-0.06656,-1.00157,0.03141,-0.0319,0.08178
413,0.03438,-0.0209,-0.97584,0.07932,0.0288,0.04584
414,0.03201,0.00101,-1.0148,-0.05385,0.02671,-0.09081
415,0.00627,-0.09477,-1.02484,-0.10702,0.00504,-0.10338
416,-0.04844,-0.17233,-0.97129,0.07132,-0.10146,-0.02494
417,-0.06821,-0.26202,-1.02299,0.04382,0.02902,0.0536
418,-0.03016,-0.1949,-0.99207,0.01918,0.01262,0.1195
419,-0.02736,-0.14221,-1.01995,0.00541,-0.02973,0.1353
420,-0.00086,-0.06516,-0.98333,0.03706,0.02173,0.13366
421,-0.00564,-0.04293,-0.99299,-0.01171,0.02287,0.16831
422,-0.0026,-0.05679,-1.02325,-0.00353,-0.00864,0.14391
423,-0.03375,-0.10137,-1.01348,-0.03223,-0.01371,0.21207
424,-0.02311,-0.10954,-0.99942,-0.02304,0.01635,0.23196
425,-0.0104,-0.0942,-0.99306,-0.01793,-0.00555,0.26612
426,-0.01624,-0.07505,-0.99936,-0.01082,0.01415,0.30377
427,-0.00431,-0.05849,-0.99893,-0.01687,0.00272,0.31303
428,-0.00998,-0.01693,-1.00634,-0.01776,0.00166,0.28093
429,-0.00365,0.02273,-1.00068,-0.01327,0.01337,0.23952
430,0.00497,0.02922,-1.00375,-0.01463,0.00961,0.1893
431,0.00096,0.00368,-1.00662,-0.01177,0.00809,0.16774
432,-0.00084,0.00082,-1.0038,-0.01352,0.00457,0.12226
433,0.00023,0.00979,-1.00242,-0.0079,0.0082,0.07262
434,-0.00136,0.00993,-1.00264,-0.01065,0.00457,0.01337
435,-0.00771,0.00518,-1.00348,-0.01065,0.00492,-0.01605
436,-0.0155,0.00306,-1.00271,-0.00623,0.00699,-0.00032
437,-0.01786,0.00542,-1.00071,-0.00784,0.00944,0.02059
438,-0.01246,0.00418,-1.00033,-0.00627,0.00856,0.00743
439,-0.01005,0.00649,-1.00285,-0.00595,0.00933,-0.00195
440,-0.01332,0.00727,-1.00309,-0.00943,0.00873,0.00336
441,-0.01564,0.00459,-1.00127,-0.00429,0.01076,0.01089
442,-0.01643,0.00808,-1.00363,0.00168,0.00594,-0.0022
443,-0.02262,0.01018,-1.00505,0.0001,0.00883,-0.00774
444,-0.02838,0.00845,-1.00086,-0.00166,0.00352,-0.01307
445,-0.03306,0.00741,-1.00126,-0.00124,0.00294,-0.01766
446,-0.03377,0.01217,-1.00412,-0.00557,0.0074,-0.02157
447,-0.03164,0.0144,-1.00191,-0.01052,0.01018,-0.03017
448,-0.02929,0.01083,-0.9997,-0.01033,0.00917,-0.03198
449,-0.02603,0.00423,-1.00137,-0.00792,0.00983,-0.02299
450,-0.02153,-0.00353,-1.003,-0.0065,0.00909,-0.01151
451,-0.0175,-0.012,-1.00464,-0.0076,0.00827,0.00287
452,-0.01234,-0.00898,-1.00505,-0.00725,0.00692,0.01409
453,-0.00657,0.00864,-1.00199,-0.00622,0.00647,0.00725
454,-0.00446,0.01082,-1.00112,-0.00628,0.00506,0.00383
455,-0.0057,0.00068,-1.00323,-0.00536,0.00928,0.01074
456,-0.00423,0.00537,-1.00284,-0.00771,0.00747,0.00755
457,-0.00125,0.01017,-1.00285,-0.00501,0.00929,0.00435
458,-0.00368,0.002,-1.00226,-0.00681,0.00782,0.00577
459,-0.00544,0.00457,-1.00166,-0.00375,0.00621,0.0051
460,-0.00798,0.00839,-1.00278,-0.00393,0.00534,0.00483
461,-0.00999,0.00465,-1.00409,-0.00924,0.0079,0.00671
462,-0.01156,0.00512,-1.00316,-0.00589,0.00718,0.00498
463,-0.01548,0.00419,-1.00167,-0.00407,0.00719,0.00561
464,-0.01571,0.00521,-1.00222,-0.00536,0.00959,0.00558
465,-0.01494,0.00519,-1.00131,-0.00568,0.00756,0.00685
466,-0.01545,0.00429,-1.00278,-0.00439,0.00844,0.00672
467,-0.01334,0.00544,-1.00564,-0.00484,0.00843,0.00755
468,-0.01181,0.0064,-1.00193,-0.0054,0.0088,0.00798
469,-0.0096,0.00613,-1.00008,-0.00663,0.00591,0.00639
470,-0.0084,0.00641,-1.00109,-0.00613,0.00694,0.00634
471,-0.00744,0.00629,-1.00486,-0.00705,0.00429,0.00615
472,-0.05423,0.04118,-1.00769,-0.00096,-0.01424,-0.02555
473,-0.15497,0.03729,-1.02517,0.01051,-0.04702,0.02261
474,-0.23737,0.04413,-1.02791,0.04766,-0.09679,-0.04047
475,-0.30837,-0.04033,-0.97973,-0.00065,0.0021,0.13982
476,-0.33012,-0.02445,-0.97977,-0.05457,-0.01817,0.06734
477,-0.3227,0.06215,-0.97997,-0.04972,-0.00053,-0.04547
478,-0.31569,0.0023,-1.04257,0.06235,0.06293,0.02676
479,-0.23672,-0.02739,-0.99265,-0.0472,-0.00479,-0.04881
480,-0.18237,0.02568,-0.92776,-0.1655,0.12195,-0.0707
481,-0.14414,-0.06607,-1.03752,-0.08629,0.0299,0.0562
482,-0.09849,-0.01733,-1.06125,0.03834,-0.01422,0.03344
483,0.04103,0.10992,-0.942,-0.09366,0.04877,-0.16446
484,0.06452,-0.03499,-0.97951,0.02019,0.02462,0.05502
485,0.21279,0.09946,-0.96059,-0.16917,0.08324,-0.06495
486,0.16515,0.01983,-1.02028,-0.05087,-0.06139,-0.00386
487,0.0629,-0.07669,-0.95711,0.05143,0.00136,0.10084
488,0.03284,0.04044,-1.07778,-0.03374,-0.08132,-0.04583
489,-0.05935,0.04955,-0.98696,-0.105,0.03412,-0.08676
490,-0.17442,-0.06209,-1.01576,-0.04297,-0.02841,0.07315
491,-0.22645,-0.04303,-0.95965,0.11721,0.01376,0.04183
492,-0.18956,0.0557,-1.03513,-0.02196,-0.01775,-0.04671
493,-0.17527,0.0797,-0.98341,-0.16654,0.0246,-0.06537
494,-0.13962,-0.05816,-0.93861,0.21275,0.12116,0.04933
495,-0.04604,-0.06284,-0.9981,0.08387,0.05551,0.06268
496,0.05784,0.08485,-1.11389,-0.11984,-0.04104,-0.00706
497,0.10611,-0.03571,-0.88672,0.18071,0.1357,0.02335
498,0.15452,0.01029,-1.02531,-0.07426,0.03798,0.02974
499,0.16702,0.12144,-1.07638,-0.07109,-0.07104,-0.09012
500,0.09382,-0.05787,-0.94141,0.04577,0.05106,0.0097
501,0.0383,-0.03814,-1.01656,-0.00464,-0.04256,0.0755
502,-0.02918,0.0732,-1.05132,-0.07574,-0.05876,-0.05616
503,-0.08685,-0.02375,-1.02913,0.03906,-0.05629,-0.01557
504,-0.16573,-0.06427,-0.88832,0.12154,0.07155,0.08983
505,-0.1629,0.05276,-1.0381,-0.09894,0.0484,-0.05008
506,-0.16233,0.06404,-1.04693,-0.03879,-0.0256,-0.05308
507,-0.14165,-0.08804,-0.89629,0.18664,0.15607,0.08017
508,-0.05474,0.00258,-0.98349,-0.07768,0.15051,0.0302
509,0.07188,-0.06469,-0.92422,-0.01083,0.01549,0.04373
510,0.10063,0.05555,-1.00197,-0.2024,0.0577,0.02008
511,0.10632,0.00377,-1.07366,-0.01846,-0.01908,0.01843
512,0.11251,-0.07247,-0.92037,0.02184,0.00399,0.0421
513,0.06949,0.07767,-1.04029,-0.25827,0.00108,-0.0217
514,-0.00257,0.02384,-1.10322,-0.03543,-0.07098,-0.05802
515,-0.0502,-0.08395,-0.89737,0.16474,0.07305,0.0794
516,-0.10873,0.02026,-1.00518,-0.18911,0.06409,0.02116
517,-0.12737,0.11279,-1.04122,-0.00407,-0.07475,-0.12623
518,-0.15089,-0.09383,-0.97566,0.20117,0.08229,0.07806
519,-0.14507,-0.04284,-0.91684,-0.08701,0.12613,0.06482
520,-0.06603,0.12352,-1.05262,-0.06688,0.02058,-0.12627
521,-0.02806,-0.07247,-1.05972,0.06911,-0.13313,0.11255
522,0.01915,0.06131,-0.91977,0.06857,-0.011,0.01236
523,0.07762,0.01551,-1.0191,0.19047,0.1602,0.04497
524,0.09217,-0.09528,-1.00295,0.06768,0.01879,0.10216
525,0.11788,0.05706,-1.01612,-0.00879,-0.11,-0.03902
526,0.07045,-0.0347,-1.01959,0.17305,0.04307,0.01472
527,0.03032,-0.02815,-0.97106,0.07291,0.03206,0.0258
528,0.00038,0.10507,-0.98376,-0.3091,0.00697,-0.12597
529,-0.0723,-0.00922,-1.07007,0.07556,-0.01888,-0.02918
530,-0.15221,-0.13353,-0.94304,0.08055,-0.08727,0.1662
531,-0.11623,0.1173,-1.04725,-0.12591,-0.01972,-0.10833
532,-0.10355,0.06257,-0.9923,0.08223,0.06024,-0.05311
533,-0.11537,-0.11895,-0.93596,0.0194,0.03751,0.13438
534,-0.04204,0.10237,-1.03652,-0.15702,0.03968,-0.04853
535,0.0139,0.00232,-1.04671,0.09783,-0.09566,-0.04267
536,0.02501,-0.03118,-0.93392,-0.16892,0.13271,0.09062
537,0.08201,-0.00057,-1.0722,0.05556,-0.01367,0.04587
538,0.0984,0.07504,-1.00658,-0.08519,-0.05862,-0.01371
539,0.02517,-0.06277,-1.02193,0.22583,-0.03596,0.00751
540,0.00859,-0.0409,-0.96035,0.03091,0.01156,0.05666
541,-0.01858,0.11663,-1.04228,-0.09394,-0.12265,-0.08728
542,-0.07244,-0.03393,-1.03803,0.21539,0.04363,0.01014
543,-0.12243,-0.07158,-0.93047,0.03835,0.03586,0.14273
544,-0.128,0.12665,-1.05276,-0.20992,-0.00855,-0.11383
545,-0.09343,0.00901,-0.98635,0.11633,0.0379,-0.07219
546,-0.10358,-0.12407,-0.94006,-0.00372,0.00743,0.19046
547,-0.03167,0.07754,-1.08324,0.02299,-0.01429,-0.05324
548,-0.03167,0.07754,-1.08324,0.02299,-0.01429,-0.05324
549,0.05654,0.00329,-0.92681,-0.06318,-0.01772,0.0593
550,0.07466,-0.00853,-1.08232,0.07958,0.01496,-0.02445
551,0.09962,0.00866,-0.93497,-0.08911,0.08524,-0.01541
552,0.05799,0.03662,-1.08871,-0.06764,-0.02202,0.02922
553,0.03506,-0.0327,-0.9862,0.16222,-0.07482,0.02819
554,0.01815,0.03646,-0.93922,-0.1616,0.09463,0.02863
555,-0.05326,0.07278,-1.10867,-0.1408,0.01335,-0.08582
556,-0.0856,-0.06722,-0.91736,0.14462,0.01745,0.05126
557,-0.13083,-0.00979,-0.98544,0.00536,-0.06188,0.04945
558,-0.11268,0.08217,-1.07169,0.09373,0.01951,-0.08302
559,-0.07271,-0.07776,-0.94415,0.0308,0.01823,0.11668
560,-0.06105,0.04699,-0.99838,-0.13777,-0.0133,0.01479
561,0.00761,0.01413,-1.02692,-0.0099,0.05076,-0.04868
562,0.01403,-0.02211,-0.91461,-0.16721,0.15226,0.04327
563,0.11533,-0.01853,-0.95118,-0.02547,-0.01122,-0.02837
564,0.07514,0.09206,-1.02668,-0.02531,-0.12937,0.0004
565,0.03434,-0.04121,-1.0097,0.18146,0.09479,-0.00239
566,0.02021,-0.02329,-0.95742,0.03544,0.0573,0.06617
567,-0.01134,0.08523,-1.08115,-0.07797,-0.0942,-0.03907
568,-0.03729,-0.02603,-0.95616,0.08749,-0.09051,-0.03464
569,-0.11275,-0.05008,-0.98972,-0.13061,-0.00298,0.12803
570,-0.09694,0.1082,-1.02182,-0.07161,0.14377,-0.11933
571,-0.06798,-0.06957,-0.96237,0.08423,0.00116,0.0407
572,-0.10559,-0.00167,-1.00392,-0.10766,-0.11012,0.04299
573,0.0223,0.05895,-1.0704,-0.00998,0.01347,-0.08206
574,-0.01959,-0.00439,-0.95229,-0.09681,-0.00995,-0.00943
575,0.0082,0.01356,-1.01825,0.01946,0.18629,0.06024
576,0.07343,-0.0591,-0.99811,0.16567,-0.04666,0.03295
577,0.07626,0.10548,-0.98664,-0.15064,0.00545,-0.04557
578,0.07123,-0.03165,-1.04072,0.04051,0.02559,0.0127
579,0.01895,-0.05129,-1.00356,-0.01205,-0.02032,0.06194
580,0.01952,0.08914,-0.96378,-0.00679,0.05331,-0.0796
581,-0.00654,-0.04904,-1.12546,0.1695,-0.04219,0.00508
582,-0.09699,-0.05801,-0.90805,-0.0575,-0.04075,0.12962
583,-0.05427,0.14584,-0.98105,-0.13108,0.01468,-0.14805
584,-0.09032,-0.00846,-1.10323,0.11695,-0.14513,0.00893
585,-0.131,-0.03511,-0.87614,0.07947,0.09793,0.12996
586,-0.01791,0.07049,-1.04422,0.09756,0.01549,-0.06795
587,-0.00911,-0.02739,-0.99943,-0.0711,-0.01905,-0.04077
588,0.09273,-0.04944,-0.95316,-0.1809,-0.01556,0.08495
589,0.19068,-0.00605,-1.13914,-0.01722,0.01469,0.079
590,0.25178,0.05753,-0.90129,-0.07491,0.08711,0.02503
591,0.25362,0.04912,-0.98215,-0.04966,-0.07521,0.03531
592,0.25742,0.02981,-1.13849,0.03662,-0.12138,-0.00316
593,0.22118,0.02825,-0.98814,-0.02057,-0.09644,-0.03718
594,0.10905,-0.02306,-0.9161,-0.0422,0.02678,0.01067
595,-0.0063,-0.00638,-0.97408,0.07975,-0.04128,0.02007
596,-0.09226,-0.01041,-1.10586,-0.00956,-0.08273,0.00571
597,-0.12433,0.04783,-1.0277,0.01265,-0.09524,-0.04356
598,-0.12705,0.01516,-0.95585,0.00466,0.04968,-0.05408
599,-0.13421,-0.00043,-0.85727,-0.044,0.13106,-0.03003
600,-0.08222,-0.04021,-1.12703,-0.01066,-0.02782,0.06801
601,0.0129,-0.01793,-1.03687,0.06273,-0.0374,0.05351
602,0.169,0.07119,-0.96097,0.01338,0.10809,-0.08788
603,0.20813,0.01965,-0.88597,-0.13383,0.23388,0.02728
604,0.24375,-0.02837,-1.09159,-0.05094,-0.00626,0.06109
605,0.27758,-0.00905,-1.07054,0.00883,-0.07506,0.07753
606,0.25376,0.06455,-0.9999,-0.02152,-0.1744,-0.01337
607,0.03008,0.03094,-0.98649,0.01156,-0.06041,-0.00564
608,0.00434,-0.01207,-0.97998,-0.00912,0.02273,0.03023
609,0.01197,0.01583,-1.00184,-0.00302,-0.02216,-0.00557
610,0.00437,0.01987,-1.00499,-0.00176,0.02904,-0.01882
611,0.02599,-0.01464,-0.99325,-0.00353,0.02495,0.04406
612,0.01519,-0.00939,-0.99159,0.01386,0.04193,0.06298
613,0.00482,0.01251,-0.99232,0.01562,0.04481,0.03627
614,-0.00282,0.0155,-1.00437,-0.01835,0.04259,0.04115
615,-0.0049,0.03228,-1.00766,-0.03126,0.03655,-0.01633
616,-0.01244,0.03265,-1.01093,-0.02529,0.00892,-0.02933
617,-0.00519,0.00442,-1.01077,0.00355,0.00899,-0.00058
618,0.00521,-0.01007,-1.00882,-0.00148,-0.00642,0.02272
619,0.01429,0.00828,-1.00636,-0.00306,-0.00342,0.00427
620,0.01683,0.01734,-1.00105,0.00245,-0.002,-0.00188
621,0.01009,0.01077,-1.00168,-0.0029,-0.00227,0.00972
622,0.00776,0.00319,-1.00282,-0.00264,-0.00292,0.01512
623,0.01411,0.01311,-1.00102,-0.00128,-0.00042,0.00375
624,0.01333,0.01203,-1.00137,-0.00198,0.00141,0.00792
625,0.01165,0.00863,-1.00324,-0.0034,0.00075,0.00866
626,0.01357,0.00747,-1.00106,-0.00341,0.00221,0.00625
627,0.01258,0.00869,-1.00159,-0.00457,0.00284,0.00394
628,0.0091,0.00829,-1.00042,-0.00475,0.00666,0.00559
629,0.00752,0.00776,-1.00069,-0.00205,0.00466,0.00929
630,0.00634,0.0084,-1.00069,-0.00622,0.00613,0.00692
631,0.00563,0.00947,-1.0009,-0.00775,0.00782,0.00796
632,0.00403,0.00799,-0.99957,-0.00728,0.00989,0.00541
633,0.00417,0.00748,-1.00235,-0.00929,0.01094,0.00766
634,0.00187,0.00801,-1.00236,-0.0085,0.01151,0.00645
635,-0.00123,0.01003,-1.00191,-0.00831,0.01078,0.00811
636,-0.00269,0.00884,-1.00371,-0.00718,0.01105,0.00896
637,-0.00135,0.009,-1.00384,-0.00868,0.013,0.00582
638,-0.00182,0.0093,-1.00297,-0.00848,0.01365,0.01135
639,-0.00214,0.00983,-1.00125,-0.00417,0.01154,0.00486
640,-0.00197,0.00891,-0.99966,-0.00776,0.01083,0.00688
641,-0.0022,0.01143,-1.00071,-0.00921,0.01095,0.00655
642,-0.00541,0.00845,-1.00384,-0.00767,0.01521,0.00507
643,-0.00632,0.00953,-1.00321,-0.00566,0.01312,0.00581
644,-0.00596,0.00994,-1.00059,-0.00734,0.01314,0.00369
645,-0.00513,0.01056,-1.00248,-0.00777,0.01547,0.00654
646,-0.00524,0.01003,-1.00427,-0.0069,0.01045,0.00604
647,-0.00635,0.01008,-1.00066,-0.00693,0.01496,0.00702
648,-0.00673,0.0083,-1.00169,-0.00868,0.0144,0.00719
649,-0.00515,0.00973,-1.00389,-0.00643,0.00989,0.00524
650,-0.00881,0.01302,-1.00466,0.00135,0.00903,-0.00042
651,-0.02137,0.01838,-1.00534,-0.0005,0.00183,-0.01095
652,-0.0346,0.01881,-1.00635,1e-05,-0.00473,-0.01271
653,-0.04319,0.00162,-1.00393,0.00721,-0.00685,0.00548
654,-0.04515,-0.00872,-1.00137,-0.00056,0.00188,0.01622
655,-0.03967,0.00716,-1.00153,0.00015,0.00351,0.00947
656,-0.03967,0.00716,-1.00153,0.00015,0.00351,0.00947
657,-0.03775,0.01014,-1.00151,-0.00309,0.00335,0.00983
658,-0.0356,0.00638,-0.99973,-0.00749,0.00525,0.0045
659,-0.02229,-0.00892,-0.99834,0.00651,0.01358,0.03687
660,0.00257,-0.06847,-0.99592,0.03878,0.0203,0.01256
661,0.03897,-0.12354,-1.0064,0.02473,-0.00672,-0.06628
662,0.03018,-0.18191,-1.00956,-0.0727,-0.00593,-0.16175
663,-0.00082,-0.19914,-0.97217,-0.17069,0.04742,-0.23447
664,-0.05281,-0.3645,-1.09893,-0.03486,-0.03139,-0.06638
665,-0.07306,-0.29492,-0.98169,-0.18347,0.0033,-0.02676
666,-0.05255,-0.23092,-0.99683,0.06888,0.00307,0.09333
667,-0.08102,-0.29798,-0.97238,-0.11483,-0.01871,0.2059
668,-0.02692,-0.08953,-1.00946,-0.2983,0.12498,0.04429
669,0.02241,-0.06313,-0.98683,0.06573,0.031,0.06812
670,0.00896,-0.02193,-1.03051,-0.02015,-0.03062,0.13689
671,0.05126,0.12531,-1.03288,-0.2214,0.01065,0.03963
672,0.05788,0.11005,-0.94727,0.09499,0.05084,0.05876
673,-0.01059,0.12615,-1.00209,0.09258,-0.00281,0.0382
674,-0.00952,0.15688,-1.01477,-0.14244,-0.06487,0.05298
675,0.01736,0.10794,-1.03605,-0.07282,0.00431,0.0218
676,-0.00538,-0.01561,-0.93772,0.10513,0.02237,0.04741
677,-0.05358,-0.04102,-1.04756,0.03248,-0.01053,-0.00945
678,-0.03214,-0.08454,-0.98935,-0.05229,-0.0306,-0.00823
679,-0.02804,-0.15174,-1.03679,-0.11039,0.02975,-0.00683
680,-0.03622,-0.11419,-0.98449,0.24598,-0.00158,-0.04697
681,-0.06829,-0.12073,-0.97418,0.06058,-0.04557,0.0433
682,-0.01873,-0.05025,-1.04482,-0.14161,0.13103,0.05368
683,0.00396,-0.00662,-1.08215,-0.1806,-0.18681,0.00263
684,-0.02161,0.05771,-0.86936,-0.26115,-0.15575,0.01152
685,0.04965,0.13412,-1.08502,-0.24554,-0.25249,-0.01305
686,0.05082,0.08665,-1.02353,-0.08512,0.04693,0.00943
687,0.00679,0.04839,-0.88112,0.19929,0.04273,-0.0007
688,0.01646,0.04768,-1.01396,-0.0904,0.10608,-0.04262
689,-0.01191,0.03709,-1.11653,-0.13544,0.01762,-0.0259
690,-0.07568,-0.06943,-0.95845,0.09432,0.04919,0.05688
691,-0.05293,-0.093,-0.84091,0.10046,-0.03098,0.05012
692,-0.03026,0.01871,-1.18187,-0.10983,-0.07383,-0.08936
693,-0.05686,-0.02044,-1.06299,0.0044,-0.00244,-0.07577
694,-0.04748,-0.12661,-0.76392,0.02853,0.12369,0.08376
695,-0.02059,-0.02262,-1.14896,-0.15512,0.04124,0.02219
696,-0.0103,0.05324,-1.07609,0.01765,-0.04553,-0.03246
697,0.02446,-0.03365,-0.78998,0.04379,0.00395,0.06041
698,0.02664,0.05377,-1.13549,-0.08994,0.00515,0.03342
699,0.0224,0.12795,-1.0715,-0.09088,-0.01614,-0.07964
700,0.00748,-0.00364,-0.80248,0.14635,0.17717,0.09803
701,0.00976,0.02648,-1.10731,-0.00664,0.06386,0.04262
702,-0.01072,0.12718,-1.0706,-0.14672,-0.02189,-0.1368
703,-0.02385,-0.03569,-0.87143,0.03358,0.07869,0.02795
704,-0.04041,-0.11107,-1.01584,0.04868,-0.05932,0.05716
705,-0.07744,0.03459,-1.0898,-0.11978,-0.03256,-0.0811
706,-0.04147,-0.05899,-0.91196,0.00899,0.13642,0.06532
707,-0.02427,-0.11893,-0.9995,-0.00889,-0.0048,0.06967
708,-0.04328,0.03603,-1.07949,-0.0879,-0.06557,-0.03001
709,0.01287,0.03933,-0.93968,0.0172,0.09486,0.02424
710,0.0075,-0.00088,-1.0292,0.11649,-0.02418,-0.05269
711,-0.00664,0.06112,-1.01053,-0.09788,-0.10398,-0.0297
712,0.0267,0.04776,-1.00179,-0.03342,0.11762,-0.01791
713,0.00609,-0.0217,-1.00294,0.13496,0.03473,0.05267
714,0.0046,0.04251,-1.00379,-0.139,-0.06101,0.03902
715,0.03164,0.10368,-1.05356,0.05728,0.01039,-0.11071
716,-0.03606,-0.06255,-0.94427,-0.0398,0.07269,0.07492
717,-0.06836,-0.06076,-0.99927,-0.18726,0.06013,0.0983
718,0.00728,0.08596,-1.12168,0.10071,-0.06726,-0.18875
719,-0.05885,-0.12051,-0.83892,0.11899,0.0365,0.16733
720,-0.04874,-0.04707,-1.07329,-0.19817,0.03107,0.03946
721,0.00847,0.13305,-1.04781,-0.00371,0.08044,-0.15917
722,-0.03982,-0.13846,-0.85196,-0.00549,0.06384,0.19973
723,0.01321,0.06214,-1.12879,-0.15506,-0.05167,-0.04126
724,0.02915,0.13886,-0.98152,0.04708,0.05069,-0.11564
725,-0.01985,-0.09289,-0.90347,0.04783,0.08153,0.17251
726,-0.00437,0.11852,-1.17658,-0.05216,-0.05387,-0.1225
727,0.02214,0.06368,-0.82236,0.12153,0.11564,-0.04427
728,-0.03315,-0.10049,-1.02929,-8e-05,0.07592,0.1586
729,-0.03388,0.08267,-1.13991,-0.13345,0.03454,-0.0735
730,0.00636,-0.00245,-0.79822,0.10992,0.05081,-0.00123
731,-0.03415,-0.06992,-1.1125,0.03361,-0.03539,0.03352
732,-0.03296,0.0438,-1.05149,-0.08762,0.01339,-0.06264
733,-0.00522,-0.06192,-0.87798,-0.14665,0.03476,0.06522
734,-0.03869,0.00343,-1.1216,-0.0706,-0.04247,0.01491
735,-0.0218,0.06893,-0.94056,0.03844,0.04609,-0.034
736,0.01824,-0.0,-1.00617,0.05593,-0.05611,0.03062
737,-0.0408,0.06159,-1.07227,-0.09697,-0.08798,0.00682
738,-0.01248,0.03153,-0.89382,0.06266,0.19728,-0.01316
739,0.01986,0.01564,-1.06405,0.10148,-0.05516,-0.04644
740,-0.02894,0.0068,-1.0157,0.01252,-0.081,0.01928
741,-0.00508,-0.00889,-0.9126,-0.0277,0.17749,0.02032
742,-0.02343,-0.00487,-1.08405,-0.00452,0.0626,0.03156
743,-0.01552,0.00236,-0.96097,-0.05308,-0.00193,0.00636
744,0.01729,0.00769,-1.02423,0.07681,-0.0993,-0.03954
745,-0.02062,0.03612,-0.98385,0.01334,0.13904,-0.03549
746,-0.0022,0.02028,-1.04177,0.07707,0.01838,-0.04625
747,-0.0407,-0.0299,-0.95894,-0.14969,-0.10235,0.10366
748,-0.00514,0.05906,-1.06049,0.02898,-0.07152,-0.05005
749,-0.01227,0.01991,-0.94836,-0.12476,0.08968,0.01198
750,-0.02482,-0.02838,-1.03372,-0.15279,-0.06307,0.08881
751,0.00651,0.0931,-1.05917,-0.06371,-0.04418,-0.14897
752,-0.00595,-0.03014,-0.88668,-0.00036,0.02362,0.08239
753,-0.02093,-0.0062,-1.04836,-0.07078,0.0335,0.0082
754,-0.00658,0.00969,-0.99936,-0.02045,0.05834,-0.02194
755,-0.03308,-0.06389,-0.96013,-0.11645,-0.03202,0.12905
756,-0.00498,0.12288,-1.12514,0.00495,-0.04901,-0.189
757,-0.00933,-0.05534,-0.84267,0.0514,0.05432,0.09099
758,-0.04725,-0.0247,-1.0943,-0.14778,-0.04364,0.04287
759,-0.01811,0.09681,-1.01183,-0.00702,0.02317,-0.10746
760,-0.02618,-0.07574,-0.90401,-0.00874,-0.06111,0.15522
761,-0.02455,0.0718,-1.15439,-0.03419,-0.0964,-0.07946
762,0.00398,0.03316,-0.89641,0.08347,-0.00135,-0.03827
763,-0.04391,-0.07136,-1.02309,-0.08461,0.00723,0.11723
764,-0.01434,0.09396,-1.04807,0.04387,0.04907,-0.11773
765,-0.00682,-0.04097,-0.9102,0.00356,0.08232,0.10443
766,-0.01737,0.03564,-1.1039,-0.10299,-0.10187,0.00146
767,-0.0086,0.09478,-0.94881,-0.01798,0.03468,-0.12122
768,-0.02624,-0.0732,-0.97799,-0.09936,0.03935,0.14227
769,-0.02647,0.07474,-1.1163,0.04415,-0.04849,-0.10599
770,-0.00709,0.00799,-0.86886,0.06069,0.10632,-0.03248
771,-0.04331,-0.04939,-1.06257,-0.12947,-0.02135,0.09132
772,-0.03896,0.07541,-1.04735,0.04702,0.07505,-0.13459
773,-0.02553,-0.08512,-0.87618,-0.04259,0.06932,0.14647
774,-0.04174,0.02327,-1.11604,-0.03356,-0.07243,0.01925
775,-0.00106,0.04779,-0.98309,0.06783,0.02903,-0.05236
776,-0.01853,-0.00861,-0.99205,-0.07892,-0.02583,0.05937
777,-0.03021,0.07445,-1.05206,-0.03925,-0.03983,-0.09593
778,-0.01193,0.01695,-0.938,-0.08371,0.05377,-0.01496
779,-0.01099,0.07911,-1.04108,0.07279,-0.03571,-0.02787
780,0.00728,0.13674,-0.97284,-0.08479,-0.04085,0.00461
781,-0.00807,0.13755,-0.98975,-0.0526,0.03015,0.09422
782,0.00061,0.23417,-1.07609,0.08008,-0.01515,-0.08392
783,0.02169,0.23009,-0.9413,-0.02664,0.00071,-0.01977
784,0.01565,0.11903,-0.98746,-0.04277,0.04923,0.04611
785,-0.02359,0.06582,-0.94705,0.10029,0.04344,0.05198
786,-0.00046,0.12021,-1.11986,0.11751,-0.04079,-0.05119
787,-0.02983,0.09078,-0.98348,0.02747,-0.03095,-0.06399
788,-0.02983,0.09078,-0.98348,0.02747,-0.03095,-0.06399
789,-0.06274,-0.07535,-0.93875,0.06041,0.05916,0.05694
790,-0.04149,-0.01778,-1.07276,-0.01569,0.03012,0.01144
791,-0.04275,0.08208,-1.04817,0.0251,-0.04222,-0.06339
792,-0.02253,0.04597,-0.94136,0.02879,0.03748,-0.03023
793,-0.00957,0.03106,-0.89232,0.08239,0.08527,0.08721
794,0.00244,0.09887,-1.08156,-0.04744,0.02637,0.12632
795,0.03092,0.25591,-1.04293,-0.1114,0.01163,0.03128
796,0.04727,0.26355,-1.00207,0.0564,-0.00558,-0.02932
797,0.05116,0.22246,-0.98738,0.02377,-0.01852,-0.05904
798,0.04072,0.14978,-0.98811,-0.01043,-0.01453,0.00154
799,0.0051,0.02565,-0.98088,0.02861,-0.00804,0.03481
800,-0.01934,0.03518,-1.00416,-0.04182,0.0208,0.02611
801,-0.03861,0.03438,-0.99415,0.00398,0.04511,0.13311
802,-0.03202,0.0088,-1.02712,-0.01284,-0.00348,0.17866
803,-0.01562,0.06099,-1.0216,-0.04775,-0.00387,0.23949
804,-0.00231,0.07295,-1.00539,-0.02366,0.00947,0.27436
805,-0.00239,0.07129,-0.99929,-0.00568,-0.00159,0.29615
806,-0.01563,0.11707,-1.01066,0.02002,-0.02913,0.25913
807,-0.01717,0.14903,-0.9946,0.01104,-0.01333,0.17721
808,0.00404,0.1336,-0.98764,0.00429,0.00424,0.0547
809,0.00357,0.10897,-0.98895,0.00278,0.01993,-0.04758
810,-0.01466,0.03841,-1.0039,-0.01204,0.0155,-0.04838
811,-0.02058,0.02027,-1.00385,-0.0163,0.01454,-0.05617
812,-0.02,0.01623,-1.00154,-0.01654,0.0154,-0.06107
813,-0.01974,0.02135,-1.00119,-0.02299,0.01599,-0.07468
814,-0.02293,0.01947,-1.00391,-0.01352,0.01466,-0.06857
815,-0.01942,0.00612,-1.00362,-0.00113,0.01603,-0.04818
816,-0.01146,-0.01821,-1.00495,-0.00249,0.01372,-0.00957
817,-0.0063,-0.02479,-1.0067,-0.00607,0.00549,0.01767
818,0.00043,0.0103,-1.00411,-0.00546,0.00603,0.01555
819,0.00551,0.0365,-1.00059,-0.00463,0.00666,-0.00271
820,2e-05,0.00552,-1.00195,-0.00613,0.00724,0.01048
821,0.00024,0.02455,-1.00173,-0.0053,0.00739,0.00219
822,-0.00435,0.01779,-1.0022,-0.00579,0.00637,0.00407
823,-0.00869,0.00982,-1.00306,-0.00194,0.00518,0.00917
824,-0.01035,0.0213,-1.00129,-0.00407,0.00565,0.00436
825,-0.01376,0.01756,-1.00064,-0.0045,0.00559,0.00436
826,-0.01779,0.01208,-1.00139,-0.00571,0.00723,0.0046
827,-0.02015,0.01651,-1.00283,-0.00489,0.00458,0.00344
828,-0.01997,0.01803,-1.00374,-0.00721,0.00679,0.00477
829,-0.02071,0.01474,-1.00204,-0.00502,0.00764,0.00611
830,-0.02033,0.01608,-1.00318,-0.00781,0.00947,0.00843
831,-0.01747,0.01667,-1.00249,-0.00596,0.00803,0.00868
832,-0.01484,0.01546,-1.00319,-0.00804,0.00711,0.00961
833,-0.01081,0.01679,-1.00219,-0.00867,0.00522,0.00878
834,-0.00848,0.01741,-1.00026,-0.00875,0.00772,0.0078
835,-0.00774,0.01643,-1.0022,-0.0069,0.00526,0.00487
836,-0.00625,0.01819,-1.00466,-0.00564,0.00686,0.00794
837,-0.00606,0.01751,-1.00218,-0.00837,0.00728,0.00491
838,-0.00612,0.01573,-1.00125,-0.00605,0.00645,0.00876
839,-0.00675,0.01616,-1.0035,-0.00431,0.00817,0.00679
840,-0.00953,0.0162,-1.00589,-0.00685,0.00696,0.00813
841,-0.01111,0.01601,-1.00365,-0.0078,0.00663,0.00755
842,-0.01347,0.01638,-1.00056,-0.00608,0.01011,0.00793
843,-0.01415,0.01687,-1.00287,-0.00465,0.00535,0.00716
844,-0.01486,0.01536,-1.00314,-0.00185,0.00779,0.0034
845,-0.01534,0.0156,-1.00216,-0.00725,0.00699,0.0053
846,-0.01343,0.01629,-1.00243,-0.00632,0.00863,0.00579
847,-0.01207,0.01726,-1.00438,-0.00753,0.00741,0.00664
848,-0.01207,0.01726,-1.00438,-0.00753,0.00741,0.00664
849,-0.00949,0.01569,-1.0013,-0.00572,0.00843,0.00647
850,-0.00761,0.01602,-1.00073,-0.00678,0.00754,0.00864
851,0.03488,0.0089,-0.98929,0.01818,0.04737,0.00923
852,0.12804,0.02761,-0.98086,-0.01678,0.09474,-0.02934
853,0.19659,0.01699,-1.02348,0.03834,0.0734,-0.0234
854,0.25907,0.01599,-1.01352,0.08224,-0.01545,-0.11484
855,0.27252,0.00217,-1.00027,-0.02161,0.01979,-0.04504
856,0.24924,-0.11316,-1.02397,-0.09626,0.00746,0.17392
857,0.24256,-0.06076,-1.00153,-0.03033,-0.01757,0.24687
858,0.26632,0.11662,-0.98434,0.11854,-0.04522,-0.02588
859,0.24618,0.17039,-0.95629,0.0049,0.07344,-0.12777
860,0.09009,-0.05118,-1.11766,-0.12527,-0.01057,0.18247
861,0.08738,0.06063,-0.97175,0.13961,-0.13106,-0.16424
862,0.03066,0.09043,-0.9101,0.05974,0.08932,-0.11002
863,-0.13702,-0.10626,-1.11734,-0.2263,0.01773,0.16993
864,-0.16843,-0.02358,-1.00063,0.11969,-0.16251,-0.04815
865,-0.1503,0.08235,-0.94393,0.10979,0.11013,-0.06604
866,-0.18257,0.00344,-0.96034,-0.18057,0.14445,0.0593
867,-0.14583,-0.03918,-1.11335,-0.11841,0.043,0.0189
868,-0.02644,0.05345,-0.97788,0.06131,-0.08532,-0.06296
869,0.04646,0.04462,-0.97319,0.04674,0.12489,-0.01007
870,0.12621,-0.00163,-0.96016,-0.03162,0.12049,0.07454
871,0.15423,-0.02846,-1.08387,-0.14532,0.03394,0.11875
872,0.19258,0.06519,-1.01032,0.14745,-0.06979,-0.09512
873,0.18301,0.03355,-0.90569,0.0746,0.07587,-0.0305
874,0.0756,-0.01553,-1.10357,-0.09555,-0.00171,0.06204
875,0.01113,0.03331,-0.99461,0.16747,-0.08671,-0.0929
876,-0.02896,0.02787,-0.91706,0.08393,0.04666,-0.00986
877,-0.13936,-0.01733,-1.10997,-0.17107,-0.04525,0.09602
878,-0.17077,-0.01286,-1.03396,0.0641,-0.19392,-0.06554
879,-0.14117,0.01864,-0.89428,0.05008,0.09193,0.01765
880,-0.11955,0.01393,-0.99525,-0.02337,0.06241,0.10339
881,-0.08697,-0.03082,-1.11926,-0.06004,-0.02304,0.05025
882,0.03619,0.09805,-0.96259,0.13308,-0.05048,-0.10948
883,0.10891,0.03132,-0.91452,-0.00678,0.08792,0.01238
884,0.13477,-0.0167,-1.06705,-0.14648,0.01451,0.08774
885,0.1357,-0.02724,-1.06733,0.08057,-0.09544,0.01282
886,0.16256,0.06605,-0.92831,0.02118,0.02401,-0.11584
887,0.10011,-0.00509,-1.00982,-0.17412,0.04265,0.08
888,0.00683,-0.02551,-1.08435,0.07581,-0.16235,0.03078
889,-0.01174,0.06493,-0.9083,0.09942,0.06204,-0.12897
890,-0.07146,0.00307,-1.0073,-0.1506,0.00284,0.07966
891,-0.15372,-0.00399,-1.10091,0.05739,-0.181,-0.02993
892,-0.13654,0.01575,-0.93034,0.10869,0.01703,-0.01378
893,-0.1213,-0.02142,-0.92797,-0.12254,0.11172,0.11755
894,-0.10059,0.01381,-1.10974,-0.11712,0.01386,0.03224
895,0.00354,0.06138,-0.98175,0.08997,-0.02111,-0.08148
896,0.08903,0.00348,-1.06864,-0.15772,0.05068,0.05187
897,0.12413,-0.02785,-0.99182,-0.01534,0.01377,0.06241
898,0.14366,0.04272,-0.96968,-0.00021,0.01445,-0.07183
899,0.09041,0.00117,-1.07019,-0.14748,-0.01911,0.10087
900,0.04531,0.02624,-1.01686,0.05549,-0.09424,-0.05614
901,0.00082,0.03308,-0.91218,0.0405,0.07537,-0.06781
902,-0.10522,0.03387,-1.02903,0.06837,-0.05578,-0.06931
903,-0.10562,0.05813,-0.94037,0.08094,0.05853,-0.04048
904,-0.14486,-0.03976,-1.04333,-0.13897,0.08518,0.1299
905,-0.0738,0.03958,-0.99895,0.02519,0.03909,-0.07673
906,-0.01202,0.03909,-0.99781,0.13529,-0.06725,-0.07774
907,0.00243,-0.06508,-0.98645,-0.06318,0.06315,0.14872
908,0.06648,-0.01745,-1.01435,-0.02263,0.02393,0.05014
909,0.13455,0.04497,-0.99523,0.09082,-0.02313,-0.04831
910,0.1003,0.02018,-1.02727,-0.02859,-0.02599,0.0466
911,0.10091,0.03942,-0.97856,-0.0272,0.0077,-0.02849
912,0.05942,0.01467,-1.00306,0.12404,-0.06684,-0.03323
913,-0.02665,-0.02021,-1.0271,-0.01828,-0.03254,0.10537
914,-0.02711,0.04114,-0.9585,-0.03509,0.04041,-0.01677
915,-0.05301,0.03372,-1.04473,0.11321,-0.07241,-0.08942
916,-0.15284,-0.05772,-1.03622,0.02955,-0.01468,0.13343
917,-0.08335,0.03725,-0.89226,-0.06436,0.1023,-0.02604
918,-0.0596,0.0192,-1.04226,0.16352,-0.02706,-0.0109
919,-0.08458,0.00017,-1.04822,-0.05352,0.01742,0.06278
920,0.0251,0.04058,-0.93449,-0.04281,0.03385,-0.03591
921,0.06466,-0.0001,-0.98636,0.03557,0.07845,0.03433
922,0.02678,-0.01454,-1.11392,-0.07529,-0.05326,0.08171
923,0.1172,0.06334,-0.9284,-0.02644,-0.02385,-0.04158
924,0.11891,0.02272,-0.96828,0.01926,0.0485,-0.02787
925,0.00769,-0.03075,-1.15087,-0.08068,-0.06688,0.06073
926,0.03915,0.04439,-0.89964,-0.03213,-0.04191,-0.06339
927,0.0202,0.0094,-0.98859,-0.02198,0.05147,-0.07263
928,-0.11219,-0.04504,-1.10238,-0.02301,-0.00308,0.05196
929,-0.087,0.01576,-0.88809,-0.08115,0.04328,-0.00185
930,-0.05744,0.04604,-1.00817,-0.04838,0.06177,-0.02419
931,-0.11683,-0.01408,-1.09944,0.06161,-0.02689,0.0601
932,-0.05547,0.02975,-0.88977,0.08109,0.06844,-0.02117
933,0.02169,0.03296,-1.004,-0.06636,0.05866,-0.01775
934,-0.01819,-0.05344,-1.1195,-0.08936,-0.07004,0.12393
935,0.05709,0.03452,-0.92335,0.01987,-0.07071,-0.06383
936,0.11723,0.02579,-0.95062,-0.01935,0.07378,0.00887
937,0.05649,0.0045,-1.13182,-0.09331,-0.04232,0.06529
938,0.064,0.0853,-0.92944,0.06453,-0.02739,-0.14275
939,0.05783,-0.01719,-0.94741,-0.0169,0.06206,0.04498
940,-0.04015,-0.03385,-1.13656,-0.01015,-0.10504,0.06947
941,-0.04849,-0.01445,-0.96641,-0.03404,0.04058,0.07237
942,-0.1113,-0.03103,-1.06005,0.03009,-0.05779,0.03027
943,-0.06482,0.02813,-0.97523,0.06678,-0.02104,-0.06809
944,-0.05351,-0.03153,-0.99917,-0.12373,0.02044,0.12297
945,-0.04906,0.00353,-1.05583,-0.06334,-0.03527,0.02877
946,0.02355,0.079,-0.95544,0.11015,-0.02979,-0.0904
947,0.05515,0.02701,-0.95899,-0.04301,0.0835,0.03703
948,0.03575,-0.0013,-1.08621,-0.0656,-0.00476,0.04205
949,0.07965,0.02713,-0.97004,0.17945,-0.02736,-0.0656
950,0.05429,-0.00411,-0.97375,-0.08867,0.01781,0.09132
951,0.02805,0.03184,-1.08714,-0.13234,-0.04787,0.00407
952,0.03925,0.06266,-0.95222,0.18458,-0.04727,-0.16423
953,-0.02748,-0.02951,-0.98,-0.14438,0.02316,0.1055
954,-0.05531,-0.01449,-1.04923,-0.08989,-0.03032,0.00071
955,-0.05506,0.03293,-1.00356,0.10237,0.01883,-0.08945
956,-0.09098,-0.05305,-0.96135,-0.20206,0.06252,0.15944
957,-0.05487,0.02132,-1.01502,-0.0693,-0.04322,-0.02002
958,-0.03688,0.04635,-1.03056,0.09081,0.02402,-0.05934
959,-0.0284,-0.0082,-1.00734,-0.09561,0.05665,0.10105
960,0.01329,0.02618,-0.99418,-0.03684,-0.00376,-0.04095
961,0.05037,0.03228,-1.00469,0.14718,-0.04452,-0.05823
962,0.02419,-0.01472,-0.99571,-0.0653,0.01311,0.09309
963,0.06797,0.04018,-1.00762,-0.05393,-0.01558,-0.05405
964,0.06078,0.03337,-1.01513,0.1749,-0.08919,-0.08377
965,-0.01027,-0.03833,-0.9868,-0.05333,-0.00735,0.11065
966,-0.02523,0.02245,-1.05021,0.09719,-0.02248,-0.07225
967,-0.08404,-0.04338,-0.98666,-0.06546,0.01247,0.10177
968,-0.03002,0.03238,-0.96076,-0.019,0.04194,-0.05472
969,-0.04714,0.01036,-1.01954,0.10909,-0.02014,-0.02148
970,-0.08248,-0.0146,-1.00376,-0.10597,0.03472,0.07822
971,-0.00229,0.05221,-0.98893,0.01166,0.03577,-0.0338
972,-0.00709,0.04214,-1.01494,0.11708,0.00336,-0.03967
973,-0.01825,-0.01822,-0.97974,-0.08324,0.06858,0.08877
974,0.04502,0.01936,-1.01975,-0.0539,0.03998,-0.02896
975,0.05143,0.01491,-1.0146,0.10977,-0.02212,-0.05263
976,0.0131,-0.03374,-0.96932,-0.03882,0.06663,0.103
977,0.00748,0.04582,-1.02349,-0.01568,0.01331,-0.05145
978,-0.07763,0.04467,-1.01955,0.11799,-0.01135,-0.08545
979,-0.17822,-0.07643,-0.98499,-0.06567,-0.0363,0.13775
980,-0.19732,0.04026,-1.04891,-0.13929,-0.0444,-0.04983
981,-0.19208,0.08444,-0.94911,0.10547,-0.0042,-0.07911
982,-0.23875,-0.01967,-0.97423,0.11231,-0.07233,0.08855
983,-0.17779,0.02433,-0.99158,-0.07448,0.07955,-0.02198
984,-0.10869,0.01859,-1.06599,-0.03952,-0.02614,0.03415
985,-0.07518,-0.05631,-0.98512,0.02024,0.02514,0.08496
986,0.03882,0.08296,-0.99321,0.12562,0.03105,-0.05165
987,0.09121,0.05333,-0.97288,0.0308,0.03619,-0.01094
988,0.11232,-0.04525,-1.01618,-0.046,0.04108,0.0464
989,0.07947,-0.08584,-1.06509,-0.12983,-0.0253,0.10819
990,-0.0261,0.0833,-0.95272,0.02533,0.00546,-0.11057
991,-0.10515,0.01357,-0.96114,-0.02544,0.03568,-0.01967
992,-0.10515,0.01357,-0.96114,-0.02544,0.03568,-0.01967
993,-0.25291,-0.00985,-1.02842,-0.04737,-0.00497,0.07509
994,-0.27178,0.01446,-1.00891,-0.04949,-0.00334,0.08436
995,-0.22706,0.08898,-0.9852,0.03752,-0.00414,-0.06538
996,-0.18531,0.05966,-0.96982,0.02716,0.05966,-0.05453
997,-0.08134,-0.01507,-0.98452,0.04889,0.01766,0.02282
998,0.01239,-0.02508,-1.03341,0.00133,-0.02272,0.05003
999,-0.01292,0.04062,-1.01163,-0.00765,0.02181,-0.02165
1000,0.00395,-0.00419,-0.99498,-0.00473,0.0303,-0.02208
1001,-0.02439,-0.01526,-1.0015,-0.01237,0.01494,-0.00571
1002,-0.03199,0.03198,-1.00279,-0.00679,0.01115,0.00552
1003,-0.01409,0.00799,-1.00343,-0.01142,0.02007,0.00239
1004,-0.01827,0.00787,-1.0061,-0.01024,0.01825,-0.00206
1005,-0.01093,0.0183,-1.00226,-0.01172,0.0212,0.00183
1006,-0.01376,0.00585,-1.00255,-0.00945,0.02117,0.01833
1007,-0.01186,0.00335,-1.00527,-0.01417,0.00258,0.03424
1008,-0.01504,0.01273,-1.00298,-0.00684,0.02343,0.0169
1009,-0.0081,0.01595,-1.0019,-0.01294,0.01996,0.0105
1010,-0.01435,0.00966,-1.00501,-0.01457,0.00637,0.00131
1011,-0.03052,0.00748,-1.00641,-0.01291,0.00044,0.02332
1012,-0.04147,-0.00196,-1.00288,-0.01325,0.00788,0.03534
1013,-0.04719,-0.01749,-0.99966,-0.01229,0.00688,0.06332
1014,-0.04465,-0.01382,-1.00173,-0.01247,0.00962,0.0822
1015,-0.04297,-0.00065,-1.004,0.00182,0.00501,0.10146
1016,-0.04057,0.03749,-1.00539,0.00327,-0.00236,0.05923
1017,-0.04207,0.07358,-1.0016,-0.0086,0.00625,-0.00116
1018,-0.0465,0.04399,-0.99882,-0.00951,0.01103,-0.01175
1019,-0.05454,-0.01738,-1.00317,-0.00866,0.00984,0.01937
1020,-0.04511,0.00456,-1.00283,-0.00625,0.01042,0.01085
1021,-0.02993,0.02864,-1.0012,-0.00349,0.01432,0.00202
1022,-0.02141,0.00674,-1.0028,-0.00337,0.00995,0.00821
1023,-0.01474,-0.00031,-1.00503,-0.00264,0.00757,0.01522
1024,-0.00446,0.02511,-1.00529,-0.00504,0.00373,0.00233
1025,-0.00372,0.02058,-1.001,-0.00532,0.00389,-0.00224
1026,-0.00604,0.00467,-1.00293,-0.00802,0.0043,0.00728
1027,-0.00553,0.00874,-1.00363,-0.00599,0.00615,0.00917
1028,-0.00316,0.0171,-1.00476,-0.00642,0.00599,0.00362
1029,-0.00215,0.00917,-1.00355,-0.00756,0.00616,0.01012
1030,-0.00133,0.00899,-1.00126,-0.00557,0.00447,0.00851
1031,-0.00017,0.01409,-1.00088,-0.00399,0.0065,0.00708
1032,0.00209,0.01211,-1.00062,-0.00536,0.00267,0.0051
1033,0.00563,0.01108,-1.00046,-0.00561,0.00629,0.00713
1034,0.00732,0.01349,-1.00188,-0.0054,0.00481,0.00533
1035,0.00791,0.01202,-1.00245,-0.00446,0.0066,0.00816
1036,0.00972,0.00962,-1.00214,-0.0055,0.008,0.00763
1037,0.00843,0.01116,-1.00215,-0.00035,0.00664,0.00874
1038,0.00706,0.01271,-1.00263,-0.00624,0.0083,0.00574
1039,0.00383,0.01135,-1.00196,-0.0066,0.00824,0.00574
1040,0.00075,0.01239,-1.0023,-0.00593,0.00756,0.00814
1041,-0.00227,0.01279,-1.00308,-0.00748,0.01036,0.00719
1042,-0.00581,0.01244,-1.00245,-0.0061,0.00824,0.00492
1043,-0.00865,0.01271,-1.00375,-0.00632,0.0134,0.00538
1044,-0.01144,0.01328,-1.00291,-0.00482,0.00848,0.00825
1045,-0.01279,0.01254,-1.00215,-0.00827,0.00853,0.00511
1046,-0.01356,0.01243,-1.0029,-0.00466,0.01076,0.00421
1047,-0.01383,0.01288,-1.00319,-0.00515,0.00814,0.00375
1048,-0.01452,0.01173,-1.00212,-0.00523,0.00849,0.00569
1049,-0.0258,0.02444,-1.00688,-0.0048,-0.00592,-0.01871
1050,-0.06827,0.06256,-0.99063,-0.03827,0.02682,-0.00257
1051,-0.07479,0.11138,-1.01258,-0.06147,0.02303,0.06382
1052,-0.04413,0.21775,-1.00734,-0.0091,0.0001,0.00631
1053,-0.02856,0.26209,-1.0515,-0.02711,-0.06049,0.06862
1054,-0.05956,0.25104,-1.01504,0.01406,-0.09822,0.172
1055,-0.08795,0.21595,-0.8721,0.05475,0.08847,0.27747
1056,0.02673,0.42494,-1.03145,-0.09262,0.18632,-0.04129
1057,0.01172,0.36183,-1.04937,-0.00072,0.05168,-0.16358
1058,0.02281,0.16424,-0.89999,0.03333,0.02582,-0.09481
1059,-0.03443,0.09846,-1.0493,0.02942,-0.01162,-0.02212
1060,-0.00613,-0.01545,-1.00857,0.06147,0.10557,-0.02279
1061,0.05694,-0.00608,-0.92874,-0.15473,0.14028,-0.0765
1062,0.00237,-0.09855,-1.13801,-0.07106,-0.07008,-0.02922
1063,0.04757,-0.13335,-0.94069,0.09579,-0.02033,-0.06753
1064,0.02581,-0.03809,-1.09106,-0.09143,-0.02105,-0.03873
1065,-0.04682,-0.09627,-1.05122,0.04546,-0.12845,0.06936
1066,-0.01998,0.0488,-0.91477,0.05853,0.02232,0.05911
1067,0.01087,0.16407,-0.96414,-0.13471,0.09998,-0.03113
1068,-0.00542,0.24485,-1.01175,-0.04261,0.03672,-0.12386
1069,-0.08775,0.06358,-1.08973,0.08375,-0.08916,0.06057
1070,-0.05301,0.06073,-0.91905,0.00514,0.08214,0.0846
1071,0.02186,0.15442,-0.96764,0.03212,0.05388,-0.0424
1072,-0.04546,-0.01277,-1.13001,0.01875,-0.17087,0.09282
1073,-0.0226,-0.04984,-0.98199,-0.06433,0.03497,0.07302
1074,0.0755,0.0696,-0.91137,0.00723,0.13736,-0.1179
1075,0.00815,-0.08846,-1.07171,0.06207,-0.10031,-0.01999
1076,-0.03691,-0.1622,-1.03562,-0.04149,-0.06437,0.13447
1077,0.04582,0.01114,-0.9444,0.01887,0.14876,-0.03012
1078,0.02756,0.00994,-1.0064,0.10204,-0.0725,-0.03679
1079,-0.04587,0.00717,-1.0504,0.04115,-0.15226,0.08449
1080,-0.02545,0.05784,-0.98185,-0.12743,0.14018,0.04364
1081,0.02561,0.17578,-0.93133,0.00578,0.08991,-0.08398
1082,-0.067,0.04691,-1.0437,0.10097,-0.10603,0.0443
1083,-0.07374,-0.01206,-1.04385,-0.1956,0.06697,0.22035
1084,0.01873,0.19499,-0.95819,-0.09282,0.0499,-0.15201
1085,0.01873,0.19499,-0.95819,-0.09282,0.0499,-0.15201
1086,-0.05909,-0.07838,-1.06198,-0.25565,-0.00599,0.15711
1087,0.04533,0.0496,-1.05657,-0.02461,-0.06496,-0.09824
1088,0.03409,-0.05779,-0.91703,0.15162,-0.03105,-0.00469
1089,-0.0077,-0.0477,-1.03643,-0.25241,-0.05689,0.0956
1090,0.02031,0.02357,-1.09899,-0.05972,0.01782,-0.09722
1091,0.03448,-0.01188,-0.89855,0.16977,-0.03955,0.00161
1092,-0.03098,-0.00903,-1.00815,-0.19802,-0.02947,0.08506
1093,-0.02831,0.08668,-1.05321,-0.02056,0.09519,-0.03443
1094,-0.01677,0.04108,-0.95767,0.04676,0.03768,0.02851
1095,-0.03792,0.04988,-0.944,-0.02533,0.1139,0.03633
1096,-0.06394,0.11358,-1.09627,-0.02637,0.05293,-0.03754
1097,-0.00863,0.0387,-0.90793,0.21113,0.11491,-0.00102
1098,-0.02225,0.00256,-0.89211,0.13434,0.03738,0.06389
1099,-0.0454,0.00362,-1.23983,-0.0119,0.00549,0.04615
1100,0.02608,0.03842,-0.86176,-0.03843,0.08181,-0.04249
1101,0.04818,0.01949,-0.93937,0.06247,-0.00429,-0.02487
1102,-0.02608,-0.0757,-1.20126,-0.08465,-0.07657,0.07257
1103,0.03419,0.01656,-0.91356,-0.01356,0.04347,-0.05162
1104,0.03893,0.02547,-0.90214,0.10323,0.02056,-0.00857
1105,-0.04432,-0.05298,-1.20964,-0.01406,-0.06521,0.05557
1106,0.00347,0.07323,-0.88088,-0.03795,0.08544,-0.08193
1107,0.00112,0.0543,-0.95072,0.09909,-0.03364,0.03728
1108,-0.06701,-0.01652,-1.14683,0.0349,-0.09251,0.06929
1109,-0.02617,0.08423,-0.93011,-0.03478,0.06288,-0.00845
1110,0.01982,0.11396,-0.90832,0.03618,0.04428,-0.05706
1111,-0.01403,-0.00764,-0.92046,-0.15106,0.10209,0.05877
1112,0.03281,0.04419,-1.0234,0.014,0.12981,-0.0624
1113,-0.01564,-0.04395,-1.04242,0.12733,-0.12382,0.02087
1114,0.00185,-0.00262,-0.92902,-0.09688,0.05114,0.04522
1115,0.0467,0.02739,-1.04775,0.0926,0.1272,-0.08256
1116,-0.0248,-0.06066,-1.00748,0.16073,-0.12857,0.07881
1117,-0.01169,0.04728,-0.93793,-0.1026,0.06112,-0.01906
1118,0.00381,0.03531,-1.04999,0.08944,0.01405,-0.03152
1119,-0.06656,-0.01504,-1.0171,-0.05631,-0.03918,0.081
1120,-0.00672,0.12327,-0.93562,-0.03372,0.04065,-0.06771
1121,0.00515,0.01019,-1.09676,0.10041,-0.10333,-0.01011
1122,-0.07184,-0.02283,-0.98572,-0.1661,0.01935,0.10135
1123,0.03409,0.07664,-0.95508,-0.04749,0.0809,-0.05549
1124,0.00175,-0.04124,-1.07072,0.03893,-0.12756,0.06843
1125,-0.03273,0.00717,-0.94221,-0.08284,0.00964,0.00984
1126,0.06602,0.06458,-1.01563,0.10825,0.174,-0.13528
1127,-0.02489,-0.07296,-1.01515,0.05785,-0.09954,0.08877
1128,-0.03136,0.03817,-0.98333,0.04611,0.00621,-0.02254
1129,0.04186,0.03168,-1.0154,0.18025,0.08597,-0.07526
1130,-0.01427,0.10087,-1.01325,-0.12443,0.0664,-0.05862
1131,0.02928,0.03127,-0.96071,0.08981,0.05614,-0.05353
1132,-0.08304,-0.02278,-1.036,0.04088,-0.14148,0.08779
1133,-0.08304,-0.02278,-1.036,0.04088,-0.14148,0.08779
1134,0.02898,-0.00275,-0.93461,0.07486,0.03546,0.00061
1135,-0.0667,0.00901,-1.05893,-0.08023,-0.08832,0.08304
1136,0.03137,0.03231,-0.99498,0.08859,0.12094,-0.07934
1137,0.02489,-0.01829,-0.90845,-0.10732,0.07833,0.04853
1138,-0.04576,0.00567,-1.16688,-0.15716,-0.02953,0.02368
1139,0.04213,0.01581,-0.90043,0.18889,0.05822,-0.07512
1140,-0.02037,-0.01762,-0.93021,-0.09223,0.01221,0.08295
1141,-0.03407,0.03852,-1.14771,-0.07833,0.02193,-0.04807
1142,0.03511,0.01428,-0.90682,0.0926,0.03478,-0.0086
1143,-0.04776,-0.0157,-1.03454,-0.00849,-0.16144,0.12593
1144,0.01204,0.08662,-1.05729,0.04552,0.03742,-0.1518
1145,0.01107,0.00067,-0.86514,-0.11224,0.10254,0.01427
1146,-0.07736,-0.01706,-1.12533,-0.06447,-0.02807,0.10414
1147,0.03002,0.0323,-0.99412,0.12014,-0.02776,-0.06951
1148,-0.002,0.01955,-0.904,-0.03784,0.0183,0.01956
1149,-0.05418,-8e-05,-1.1203,0.12036,0.0108,0.02371
1150,0.03423,0.00324,-0.89114,0.06633,0.115,-0.00181
1151,-0.01175,0.02868,-1.0577,-0.09059,-0.12684,0.04904
1152,-0.01206,0.00054,-1.04698,0.04525,0.02237,-0.05002
1153,0.03463,0.01097,-0.87478,-0.05932,0.11649,0.00273
1154,-0.05706,-0.01822,-1.16631,-0.02877,-0.12003,0.09732
1155,0.02484,0.02517,-0.925,0.08058,-0.00185,-0.06358
1156,0.02261,0.02822,-0.94411,0.00468,-0.06767,0.04549
1157,-0.0466,0.01493,-1.13214,0.02132,-0.03589,-0.01252
1158,0.04577,0.04388,-0.86636,-0.01496,0.19574,-0.06929
1159,-0.04374,0.00643,-1.04437,0.02718,-0.02615,0.05968
1160,-0.01588,0.01253,-1.05049,0.06913,0.04506,-0.0536
1161,0.02679,-0.01313,-0.90689,-0.19101,0.02074,0.07589
1162,-0.04939,0.02696,-1.11032,-0.12753,-0.04844,0.01457
1163,0.02697,0.01849,-0.94505,0.06243,0.08272,-0.05524
1164,-0.02286,-0.02329,-1.01512,-0.00882,-0.10666,0.09522
1165,-0.02241,0.02102,-1.04718,0.0519,0.0398,-0.03762
1166,0.06135,0.00263,-0.90166,-0.03497,0.08562,-0.01711
1167,-0.03729,0.01223,-1.10386,-0.12051,-0.12172,0.06592
1168,0.01019,0.0019,-0.98746,0.12236,0.00814,-0.04895
1169,0.02717,-0.03845,-0.93658,-0.18909,0.04136,0.08157
1170,-0.02962,-0.00408,-1.13083,-0.05975,-0.05453,-0.03375
1171,0.03194,-0.07552,-0.88157,0.27874,0.08407,-0.10756
1172,-0.0515,-0.16641,-1.00948,-0.095,0.04884,0.06578
1173,-0.03684,-0.12121,-1.05649,-0.02495,-0.04252,-0.05393
1174,-0.02125,-0.21287,-0.96617,0.07114,-0.00436,0.02619
1175,-0.04101,-0.17805,-1.03938,-0.04667,-0.00723,0.07651
1176,-0.03236,-0.076,-0.98162,-0.17952,0.03337,-0.03887
1177,-0.0053,-0.08122,-0.99507,0.14633,0.03857,0.01423
1178,0.01399,-0.02529,-0.98453,0.07815,0.04208,0.05506
1179,0.02804,0.07893,-1.0557,-0.01217,0.00318,-0.05259
1180,0.00459,0.02655,-0.96497,-0.15894,0.08096,0.0147
1181,0.00608,0.04659,-0.98102,-0.03594,0.05033,0.02263
1182,0.00912,0.00805,-1.03217,0.03306,-0.01062,0.01479
1183,0.01053,-0.07967,-1.00344,-0.08698,0.05201,-0.03854
1184,-0.00435,-0.07225,-0.941,0.03122,-0.06001,-0.09685
1185,-0.05852,-0.1882,-1.03205,0.02926,0.03448,-0.00221
1186,-0.05866,-0.22606,-1.00087,0.03246,0.01253,0.05923
1187,-0.04588,-0.21834,-1.04154,0.01925,0.01485,0.1089
1188,-0.03099,-0.17401,-1.00121,0.02714,-0.00226,0.1373
1189,-0.02229,-0.11435,-1.01371,-0.03078,-0.01145,0.20786
1190,-0.01423,-0.1106,-0.99166,0.0113,-0.00631,0.25005
1191,-0.02147,-0.09331,-0.99575,-0.0166,0.00528,0.29125
1192,-0.01203,-0.09039,-0.99996,-0.00205,0.01985,0.34764
1193,-0.01729,-0.09578,-0.99921,-0.01066,0.00504,0.3952
1194,-0.00676,-0.0734,-1.0024,-0.01409,0.01743,0.4109
1195,0.00524,-0.02112,-0.99942,-0.0137,0.02202,0.39063
1196,-0.00154,0.0112,-0.99929,-0.0136,0.00662,0.37053
1197,-0.00239,0.00459,-1.00626,-0.01301,0.01732,0.27757
1198,-0.00715,0.01493,-1.00709,-0.00713,0.00976,0.20136
1199,-0.00655,0.02569,-1.0059,-0.01088,0.00351,0.13774
1200,-0.00297,0.02485,-1.00553,-0.00681,0.00599,0.07704
1201,-0.00314,0.01019,-1.00431,-0.00582,0.0044,0.02959
1202,-0.00532,-0.00283,-1.00428,-0.009,0.00418,-0.00679
1203,-0.01234,0.00219,-1.00152,-0.00838,0.00719,-0.0065
1204,-0.0179,0.01395,-1.00155,-0.0074,0.00322,0.00671
1205,-0.01781,0.00276,-1.00201,-0.00345,0.00468,0.01406
1206,-0.01364,0.00283,-1.00197,-0.00625,0.00563,0.00101
1207,-0.01439,0.00813,-1.00024,-0.00346,0.00557,0.00583
1208,-0.01433,0.00529,-1.00181,-0.00471,0.00831,0.01105
1209,-0.01113,0.00116,-1.00439,-0.00641,0.00649,0.00455
1210,-0.00888,0.00791,-1.00458,-0.00483,0.00799,0.00431
1211,-0.00922,0.00608,-1.00302,-0.0041,0.0061,0.01143
1212,-0.00813,0.00163,-1.00242,-0.00607,0.00757,0.00593
1213,-0.00791,0.00608,-1.00291,-0.00679,0.00769,0.00331
1214,-0.00829,0.00667,-1.00062,-0.00893,0.00499,0.00516
1215,-0.00626,0.00101,-1.00205,-0.00693,0.00782,0.00647
1216,-0.00628,0.00464,-1.00331,-0.00612,0.00664,0.00422
1217,-0.00796,0.00552,-1.00256,-0.00502,0.00933,0.00937
1218,-0.00993,0.00194,-1.00213,-0.00786,0.00575,0.00414
1219,-0.01147,0.00671,-1.00329,-0.00498,0.00784,0.00715
1220,-0.01238,0.00364,-1.00219,-0.00347,0.00595,0.00647
1221,-0.01156,0.0041,-1.00194,-0.00695,0.00696,0.00406
1222,-0.01159,0.00574,-1.00385,-0.00582,0.0053,0.00625
1223,-0.01264,0.00366,-1.00411,-0.00644,0.00875,0.00617
1224,-0.01207,0.00323,-1.00416,-0.00528,0.00507,0.00572
1225,-0.0108,0.00374,-1.00292,-0.00737,0.00931,0.00684
1226,-0.00949,0.00419,-1.00245,-0.00532,0.00757,0.00675
1227,-0.00945,0.00377,-1.00328,-0.00505,0.0073,0.00609
1228,-0.00988,0.00399,-1.00137,-0.00713,0.00926,0.00356
1229,-0.00868,0.00482,-1.00013,-0.00739,0.00694,0.00508
1230,-0.00718,0.00542,-1.00147,-0.00427,0.00711,0.00747
1231,-0.00912,0.005,-1.00242,-0.0066,0.00648,0.0065
1232,-0.01009,0.00497,-1.00318,-0.00485,0.00593,0.00563
1233,-0.01044,0.00519,-1.00271,-0.00933,0.00792,0.00611
1234,-0.01115,0.00391,-1.00353,-0.00369,0.00827,0.00821
1235,-0.01012,0.00447,-1.00356,-0.00692,0.00766,0.00679
1236,-0.01092,0.00512,-1.00221,-0.00456,0.00606,0.00835
1237,-0.01047,0.00484,-1.00148,-0.00719,0.00885,0.00573
1238,-0.01117,0.00554,-1.00382,-0.00415,0.00516,0.00542
1239,-0.04592,0.02036,-1.00489,-0.00178,-0.01803,-0.00543
1240,-0.13313,0.01145,-1.01289,0.03009,-0.03922,0.01824
1241,-0.20467,0.0301,-1.02039,0.04382,-0.05289,-0.05302
1242,-0.28555,0.00361,-1.01497,0.00854,-0.02586,-0.01707
1243,-0.33283,-0.00379,-0.98764,-0.03838,-0.02205,0.01005
1244,-0.35501,-0.03762,-0.97204,-0.00471,-0.07699,0.13264
1245,-0.33014,0.04688,-1.04614,-0.0224,0.01586,0.00515
1246,-0.26327,0.00403,-0.91286,0.10938,0.07219,0.06504
1247,-0.19037,0.00819,-0.98256,-0.09161,0.00845,-0.00304
1248,-0.13042,0.0559,-1.08312,0.04767,-0.04684,-0.02203
1249,-0.07459,-0.06947,-0.97591,0.14868,0.11179,0.01942
1250,0.0275,-0.03204,-0.92649,-0.13692,0.18287,0.04509
1251,0.12538,0.08847,-1.06458,-0.20239,0.0409,-0.11115
1252,0.15105,-0.06891,-1.03613,0.08001,-0.02026,0.04362
1253,0.15301,-0.03714,-0.9204,-0.05524,0.10692,0.08531
1254,0.17639,0.15316,-1.07959,-0.05447,-0.08217,-0.14489
1255,0.07611,-0.00782,-1.02065,0.04047,-0.05154,-0.06038
1256,-0.0258,-0.07918,-0.99119,0.02098,-0.01828,0.11499
1257,-0.08355,0.01159,-0.95477,0.01536,0.07618,-0.00329
1258,-0.14964,0.03665,-1.02141,-0.02945,-0.03064,-0.03604
1259,-0.22084,-0.00329,-1.06843,-0.05725,-0.07819,0.00884
1260,-0.20999,-0.01032,-0.96114,0.00445,0.04945,0.01186
1261,-0.15389,0.00949,-0.86586,-0.0026,0.10247,-0.02765
1262,-0.1213,0.00625,-1.14554,0.00877,-0.0365,0.03457
1263,-0.03596,0.01716,-0.9872,0.02331,0.07823,0.02643
1264,0.09026,0.01655,-0.87982,-0.12404,0.09469,-0.01724
1265,0.10247,0.01444,-1.13394,0.01589,-0.0644,0.01974
1266,0.14341,-0.03121,-1.02857,0.07476,-0.01559,0.0278
1267,0.14729,0.00525,-0.90234,-0.10054,0.02118,0.02966
1268,0.09694,0.06555,-1.08283,-0.10304,-0.11277,-0.05002
1269,0.01706,-0.06123,-1.05501,0.04865,-0.10226,0.04996
1270,-0.01542,-0.00153,-0.92837,0.16105,-0.00111,0.03447
1271,-0.09606,0.0437,-0.95938,-0.14498,0.04966,-0.02734
1272,-0.17695,0.05521,-1.07407,-0.06946,-0.04951,-0.03018
1273,-0.21185,-0.07792,-1.04745,0.09947,-0.05674,0.08566
1274,-0.09613,0.11424,-1.06781,-0.09389,-0.04554,-0.06858
1275,-0.07418,-0.02419,-1.06569,0.0966,0.02378,0.00264
1276,0.02738,-0.074,-0.83707,-0.10725,0.1141,0.09354
1277,0.06,0.04658,-1.16854,-0.17343,-0.05415,-0.02672
1278,0.11216,-0.01591,-0.99879,0.14442,0.02496,0.01176
1279,0.13368,-0.0191,-0.88507,-0.11661,0.05503,0.03503
1280,0.1071,0.08128,-1.15736,-0.14863,0.00165,-0.04903
1281,0.05299,-0.05463,-1.00409,0.15291,-0.05278,0.04471
1282,0.01654,-0.04612,-0.92241,-0.08504,-0.02435,0.05857
1283,-0.04075,0.13769,-1.05424,-0.09142,-0.07765,-0.12611
1284,-0.1263,-0.05365,-1.09745,0.19862,-0.15295,0.03106
1285,-0.15399,-0.09683,-0.93758,0.15531,-0.07036,0.11897
1286,-0.11506,0.11306,-0.95466,-0.24479,0.05969,-0.13461
1287,-0.13431,0.07783,-1.03318,0.02619,0.00102,-0.03308
1288,-0.11709,-0.16832,-0.95499,-0.03,0.05987,0.18167
1289,-0.01772,0.07616,-0.99531,-0.0485,-0.02485,-0.06101
1290,0.02504,0.04555,-1.06492,0.15818,0.04036,-0.05434
1291,0.04233,-0.07908,-0.8949,-0.06991,0.10297,0.14208
1292,0.0957,0.05486,-1.10906,-0.15586,0.04634,-0.01545
1293,0.11728,-0.00863,-0.99052,0.14629,-0.01231,0.01168
1294,0.07351,0.00748,-0.92136,-0.17597,0.07998,0.04932
1295,0.0514,0.05483,-1.1319,-0.1671,-0.02898,-0.05553
1296,0.00869,-0.03081,-0.95378,0.12455,-0.05564,0.00679
1297,-0.06213,-0.02318,-0.92951,-0.16334,0.03321,0.02283
1298,-0.11154,0.08108,-1.14575,-0.07032,-0.07107,-0.06778
1299,-0.14297,-0.07961,-0.97731,0.15481,-0.04738,0.09601
1300,-0.11632,-0.03447,-0.8624,-0.12457,0.07002,0.0481
1301,-0.09331,0.11675,-1.1242,-0.04994,0.01014,-0.07802
1302,-0.07994,-0.06157,-0.95679,0.13682,0.12309,0.04986
1303,-0.01751,-0.00123,-0.92703,0.11697,0.01066,0.06935
1304,0.07662,-0.01604,-0.91166,-0.14513,0.02426,-0.00636
1305,0.10709,0.05228,-1.04417,-0.17347,0.06233,0.06189
1306,0.09044,-0.03155,-1.06255,0.10525,-0.07156,0.05294
1307,0.09044,-0.03155,-1.06255,0.10525,-0.07156,0.05294
1308,0.02657,0.06295,-1.13491,-0.05332,-0.05322,-0.09546
1309,-0.04514,-0.07763,-1.00117,0.07059,-0.05835,0.01115
1310,-0.08644,-0.0668,-0.89519,-0.16447,0.00477,0.05108
1311,-0.11775,0.07683,-1.09343,-0.17606,0.01642,-0.04432
1312,-0.13784,-0.06055,-1.04919,0.09206,-0.03979,0.11478
1313,-0.10219,-0.03009,-0.84287,-0.01571,0.06181,0.07751
1314,-0.02193,0.16037,-1.13635,-0.01388,-0.01267,-0.07288
1315,-0.04988,-0.05928,-0.96392,0.00064,0.07389,0.02322
1316,0.02102,0.00539,-0.94116,-0.03016,0.04233,0.03016
1317,0.06463,0.02051,-1.10721,-0.01048,-0.08029,-0.01463
1318,0.07269,-0.01481,-0.90685,-0.18429,0.06912,-0.01916
1319,0.07727,0.01221,-1.09439,-0.17147,0.08137,0.03814
1320,0.0475,-0.04382,-0.98323,0.15368,-0.02607,0.03761
1321,0.04107,0.04144,-0.93519,-0.1165,0.06833,-0.03812
1322,0.00769,0.05203,-1.10489,-0.20736,0.04418,-0.0585
1323,-0.08461,-0.06822,-0.9221,0.18652,0.0145,0.05199
1324,-0.09683,0.00233,-0.95959,-0.0503,0.08133,0.04786
1325,-0.09135,0.10075,-1.1497,-0.04886,-0.10066,-0.05138
1326,-0.12416,-0.08594,-0.9022,0.03659,0.02093,0.10606
1327,-0.06075,0.04642,-0.96164,-0.21308,0.08719,-0.03592
1328,-0.02204,0.07664,-1.10321,-0.09349,-0.01812,-0.09306
1329,-0.01853,-0.09381,-0.86667,-0.12516,0.07689,0.04921
1330,0.02285,0.00328,-1.14193,-0.15994,-0.03363,0.06939
1331,0.04985,0.0167,-0.92259,0.15646,0.11368,-0.01977
1332,0.10098,0.06112,-0.94794,0.08103,0.13292,-0.04718
1333,0.04563,-0.00604,-1.15171,0.04672,-0.13608,0.0465
1334,0.04235,-0.04329,-0.90113,-0.00055,-0.03535,0.01501
1335,0.04015,0.08261,-1.02993,-0.09868,-0.05042,0.00435
1336,-0.03332,-0.01873,-1.05805,0.17984,-0.1018,0.01523
1337,-0.05186,-0.04762,-0.93501,0.0134,-0.02374,0.05367
1338,-0.06486,0.12806,-1.05801,-0.26775,-0.01964,-0.09336
1339,-0.10347,-0.00053,-0.97145,0.15759,0.04234,-0.02864
1340,-0.09653,-0.08276,-0.95682,0.08767,0.1105,0.10696
1341,-0.05028,0.08153,-1.07563,0.01533,-0.06455,-0.04802
1342,-0.02951,-0.03306,-0.96206,0.04997,0.03866,-0.03664
1343,0.00324,-0.00873,-0.98201,-0.05328,-0.0541,0.06073
1344,0.01528,0.01996,-1.05031,0.22109,-0.03437,-0.0061
1345,0.09287,-0.01904,-0.95579,0.02458,0.14628,0.03196
1346,0.07629,0.0888,-1.04184,-0.09587,-0.01974,-0.03583
1347,0.05262,-0.04241,-1.02222,0.16681,-0.09771,-0.04379
1348,-0.02914,0.0248,-0.99768,0.01539,0.03606,0.04254
1349,-0.02914,0.0248,-0.99768,0.01539,0.03606,0.04254
1350,-0.05835,0.06013,-0.97443,-0.02088,-0.0476,-0.00211
1351,-0.05835,0.06013,-0.97443,-0.02088,-0.0476,-0.00211
1352,-0.09968,-0.06724,-1.06874,0.02208,-0.0084,0.09467
1353,-0.08313,0.06516,-0.8814,-0.05153,0.12899,-0.05416
1354,-0.02673,0.00873,-1.0683,0.09523,0.13892,-0.04803
1355,-0.01086,0.0044,-0.9611,-0.30887,-0.01093,0.04911
1356,-0.00131,-0.01486,-1.04629,-0.154,-0.0613,0.00332
1357,0.10031,0.01195,-1.03704,-0.07653,0.04374,0.00881
1358,0.13125,0.0599,-0.90046,0.03626,0.01928,0.02788
1359,0.18957,-0.03748,-1.06961,0.0475,-0.01129,0.0129
1360,0.23997,0.06599,-1.0559,-0.14143,0.01438,0.02901
1361,0.22759,0.0555,-0.93874,0.07901,-0.01627,-0.05718
1362,0.16048,-0.06383,-0.9816,0.06855,-0.13206,0.04851
1363,0.11996,0.05453,-1.1016,-0.05024,-0.11471,-0.03078
1364,0.07261,0.0295,-0.99944,-0.06143,0.00487,-0.06142
1365,-0.04221,-0.00212,-0.91987,-0.08397,0.01097,-0.04473
1366,-0.13699,-0.00024,-1.01177,0.03343,-0.01009,-0.00545
1367,-0.139,-0.03782,-1.042,0.09205,-0.011,0.09074
1368,-0.10283,0.03358,-1.00749,0.00368,0.02213,0.01931
1369,-0.03888,0.06058,-0.92626,-0.12387,0.08632,-0.01306
1370,-0.00181,-0.03459,-0.96417,-0.08327,0.11285,0.10176
1371,0.11871,-0.01773,-1.10014,0.04112,0.0809,0.10266
1372,0.23492,0.11378,-1.04167,0.00662,-0.01075,-0.08011
1373,0.26348,0.00984,-0.95083,-0.01846,0.01029,-0.04053
1374,0.21989,-0.04476,-0.96072,-0.06522,0.08062,0.01696
1375,0.18026,0.00318,-0.99788,0.02679,0.02173,-0.02255
1376,0.13501,-0.00205,-1.0587,-0.00062,-0.0953,0.02174
1377,0.06961,0.06589,-1.02627,-0.02403,-0.12227,-0.04106
1378,0.01078,0.02586,-0.9888,-0.00645,0.01928,0.02566
1379,0.02597,0.01531,-0.98358,0.02042,0.04983,0.0324
1380,0.00826,0.01231,-1.01175,-0.00243,-0.01119,0.04612
1381,0.01287,-0.00996,-1.00149,-0.00641,-0.00913,0.05678
1382,0.02201,0.02698,-1.00035,-0.0057,-0.00558,0.02622
1383,0.0132,0.01641,-1.00159,-0.00108,0.00719,0.00966
1384,0.0193,0.00679,-1.00372,-0.00516,0.00818,-0.0027
1385,0.02912,0.01401,-1.00203,-0.00124,0.00572,-0.01621
1386,0.01933,0.01185,-1.00364,-0.00266,0.00317,-0.00725
1387,0.0144,0.01284,-1.00264,-0.00755,0.00801,-0.00046
1388,0.00591,0.01036,-1.00416,-0.00561,0.00829,0.0048
1389,0.00322,0.01354,-1.00297,-0.00748,0.00766,0.00274
1390,0.00078,0.0121,-1.00071,-0.00685,0.00684,0.00635
1391,-0.00215,0.00877,-1.00197,-0.00892,0.00552,0.00695
1392,-0.00474,0.01268,-1.00274,-0.00425,0.00674,0.00906
1393,-0.00642,0.01273,-1.00269,-0.00757,0.00929,0.00626
1394,-0.00761,0.01092,-1.0051,-0.0071,0.0067,0.0087
1395,-0.00796,0.01227,-1.00346,-0.00635,0.00768,0.00947
1396,-0.01021,0.01287,-1.00024,-0.00635,0.00692,0.00612
1397,-0.01042,0.01345,-1.00214,-0.00715,0.00586,0.00624
1398,-0.01089,0.01188,-1.00312,-0.00526,0.00545,0.00739
1399,-0.01125,0.01261,-1.00422,-0.00807,0.00649,0.00529
1400,-0.01231,0.01181,-1.00441,-0.00595,0.00829,0.0089
1401,-0.0134,0.01238,-1.00279,-0.00403,0.00626,0.00628
1402,-0.01395,0.01108,-1.00378,-0.00753,0.00745,0.00699
1403,-0.01452,0.01324,-1.00328,-0.00555,0.00891,0.00464
1404,-0.01498,0.01098,-1.00091,-0.00638,0.00578,0.00672
1405,-0.01501,0.01284,-1.00245,-0.00691,0.00595,0.00371
1406,-0.01586,0.012,-1.00376,-0.00655,0.00768,0.00778
1407,-0.016,0.01329,-1.00377,-0.00664,0.00725,0.00563
1408,-0.01594,0.01232,-1.00455,-0.00759,0.00769,0.00713
1409,-0.01568,0.01247,-1.00271,-0.0046,0.00837,0.00679
1410,-0.01645,0.01204,-1.00265,-0.00765,0.00695,0.00633
1411,-0.01828,0.01197,-1.00438,-0.00532,0.00736,0.0087
1412,-0.01826,0.01287,-1.00263,-0.00806,0.00457,0.00577
1413,-0.01727,0.01134,-1.00381,-0.00557,0.00671,0.00877
1414,-0.01877,0.01217,-1.00428,-0.00617,0.00568,0.00537
1415,-0.01836,0.01222,-1.00207,-0.00777,0.00679,0.00928
1416,-0.0186,0.01285,-1.00253,-0.00671,0.00806,0.00572
1417,-0.01898,0.01254,-1.00155,-0.00773,0.00822,0.00773
1418,-0.01921,0.01366,-1.00234,-0.00984,0.00761,0.00718
1419,-0.02034,0.01261,-1.00057,-0.00772,0.00722,0.0091
1420,-0.0216,0.01228,-0.99981,-0.00997,0.00675,0.00639
1421,-0.02192,0.01222,-0.99993,-0.00846,0.00997,0.01003
1422,-0.02154,0.01362,-1.00172,-0.00804,0.00908,0.00951
1423,-0.02226,0.01287,-1.00334,-0.01015,0.00928,0.00649
1424,-0.02274,0.01307,-1.00251,-0.00803,0.01243,0.00835
1425,-0.0243,0.01172,-1.00034,-0.01157,0.01087,0.011
1426,-0.02668,0.01189,-1.00098,-0.01033,0.00994,0.00816
1427,-0.02779,0.0149,-1.00171,-0.00296,0.012,0.00896
1428,-0.01882,0.00773,-0.99869,0.00552,0.02338,0.02791
1429,0.00129,-0.04684,-0.99025,0.04043,0.03214,0.04583
1430,0.01705,-0.09982,-0.99618,0.06785,0.02252,-0.04039
1431,0.00881,-0.19603,-1.03259,0.05627,-0.01014,-0.03827
1432,0.00794,-0.20678,-1.02452,-0.08169,-0.01838,-0.13476
1433,-0.04179,-0.32865,-1.09188,-0.09183,0.06284,-0.13746
1434,-0.09576,-0.25285,-0.94612,-0.00931,0.09489,-0.10316
1435,-0.08239,-0.25769,-1.00906,0.17538,-0.09237,0.17163
1436,-0.12709,-0.26235,-1.14237,-0.09126,-0.07657,0.25685
1437,0.0026,-0.04092,-0.75341,0.14326,0.09999,0.04608
1438,0.02683,-0.01543,-1.07045,-0.03116,0.05102,0.05307
1439,0.01334,0.11782,-1.13716,-0.06073,0.15661,0.1059
1440,0.05133,0.04946,-0.75361,0.21132,0.05031,0.17111
1441,0.08856,0.13857,-1.05736,-0.14328,0.10539,0.05101
1442,0.09991,0.20735,-1.1017,-0.06335,-0.02673,-0.0631
1443,0.01889,0.11894,-0.95692,0.07832,0.06266,-0.06305
1444,-0.02715,-0.04976,-0.93664,0.0449,-0.09498,0.11683
1445,-0.0398,-0.00653,-1.09795,-0.1759,-0.05158,-0.0127
1446,-0.0628,-0.03813,-1.04131,0.00565,-0.04468,-0.01598
1447,-0.09762,-0.08811,-0.91939,0.11883,0.16078,-0.01109
1448,-0.09774,-0.17771,-0.94246,-0.04914,0.06156,0.13513
1449,-0.05633,-0.04519,-1.15008,-0.19565,-0.03853,-0.02865
1450,-0.0091,-0.04383,-0.91496,0.10613,0.04536,-0.01615
1451,-0.04171,-0.03691,-0.96543,-0.04454,0.08688,0.07766
1452,0.02704,0.0721,-1.05301,-0.0783,0.01906,-0.03421
1453,0.06414,0.02281,-0.95008,0.01351,0.08061,0.02465
1454,0.02581,0.06564,-1.06276,0.01215,0.00866,0.03925
1455,0.04078,0.11433,-0.99186,-0.12343,-0.0622,-0.04079
1456,0.04138,0.06625,-0.91797,0.07439,0.08685,-0.02857
1457,-0.00949,-0.00935,-1.09217,0.06546,-0.08455,0.07645
1458,-0.05523,0.03988,-1.00683,-0.04016,-0.00987,-0.02967
1459,-0.02434,-0.0055,-0.90437,0.06414,0.06569,-0.06984
1460,-0.06243,-0.12021,-1.04736,-0.01515,0.00157,0.10669
1461,-0.08706,0.00071,-1.09881,-0.01076,-0.06768,-0.09586
1462,-0.05575,-0.03033,-0.8532,0.08632,0.08181,-0.04058
1463,-0.03544,-0.09992,-1.04376,-0.0624,0.06614,0.07023
1464,-0.0278,0.01831,-1.08461,-0.11046,-0.04087,-0.03721
1465,-0.01023,0.03766,-0.9203,0.07339,0.01968,-0.02866
1466,0.01456,-0.01559,-0.98805,-0.05728,0.07316,0.10643
1467,0.03886,0.06879,-1.07956,-0.07505,0.02107,-0.0257
1468,0.03702,0.0644,-0.95416,0.06234,-0.04873,-0.05845
1469,-0.00254,-0.00533,-1.00471,-0.10782,0.01135,0.10887
1470,0.01764,0.05512,-1.0323,-0.00293,0.04097,-0.02224
1471,0.00383,0.0235,-0.98014,0.03479,-0.0574,-0.07855
1472,-0.05171,-0.0139,-1.0368,-0.08827,-0.12043,0.0809
1473,-0.03675,-0.00669,-1.00294,-0.04151,0.09464,-0.05958
1474,-0.08929,-0.01389,-1.03872,-0.11518,-0.05108,0.03641
1475,-0.0253,-0.00997,-0.92236,-0.01829,0.13344,-0.01788
1476,-0.02397,-0.07025,-1.06714,0.01702,0.02334,0.11093
1477,-0.03523,0.04989,-1.006,-0.01487,0.06408,0.00363
1478,0.03311,0.03374,-0.91989,-0.08516,0.0129,-0.02536
1479,0.0301,0.05129,-1.10591,-0.03213,-0.06657,-0.00934
1480,-0.01364,0.06625,-0.9904,0.12085,0.02684,-0.05225
1481,0.00343,-0.04782,-0.90004,0.00521,0.04074,0.08103
1482,0.01653,0.03319,-1.12322,-0.12726,-0.04605,0.02138
1483,-2e-05,0.04435,-0.99171,0.10113,-0.02411,-0.06702
1484,-0.01862,-0.03932,-0.94851,0.00395,-0.0417,0.09282
1485,-0.02096,0.04233,-1.09977,-0.03299,-0.12869,-0.02581
1486,-0.01655,0.03193,-0.92804,0.23543,-0.15698,-0.078
1487,-0.06542,-0.04139,-1.00902,-0.01264,0.02544,0.11406
1488,-0.03761,0.02713,-0.97415,0.07067,0.07966,-0.02155
1489,-0.00494,0.00641,-1.08689,0.12517,-0.0588,-0.08712
1490,-0.05713,-0.0356,-0.93744,0.10961,-0.06545,0.12915
1491,0.00954,-0.01263,-0.96906,-0.04139,0.06283,-0.02152
1492,0.02924,0.06643,-1.11142,0.09743,-0.09977,-0.06901
1493,-0.0135,0.02308,-0.90836,0.17699,0.06474,0.01238
1494,0.02003,-0.0385,-0.98643,0.00188,0.08838,0.05458
1495,0.02289,0.07785,-1.11576,-0.02843,-0.08887,-0.03087
1496,-0.02105,0.0152,-0.90429,0.05301,-0.0354,0.00943
1497,-0.01276,-0.0161,-0.9912,-0.13109,0.122,0.07702
1498,-0.01015,0.1004,-1.08531,0.02076,-0.01528,-0.09841
1499,-0.04861,-0.03413,-0.91328,0.08344,-0.02079,0.03529
1500,-0.03312,-0.03245,-1.02829,-0.10535,0.00843,0.06031
1501,-0.02753,0.04589,-1.0369,0.0782,-0.00833,-0.09697
1502,-0.04587,-0.03881,-0.96516,0.05579,0.03245,0.04476
1503,-0.02696,-0.02103,-0.9941,-0.05916,0.03161,0.08013
1504,0.00521,0.00087,-1.05804,0.06394,-0.11076,-0.05684
1505,0.00238,0.01071,-0.98391,-0.14385,0.06216,0.02284
1506,0.02355,0.0301,-1.12547,0.00591,-0.09562,-0.04127
1507,0.02355,0.0301,-1.12547,0.00591,-0.09562,-0.04127
1508,0.01488,-0.04179,-0.94871,-0.03266,-0.0673,0.06554
1509,0.01237,0.07922,-1.12429,-0.02309,-0.15463,-0.10361
1510,-0.03557,0.04815,-0.90579,0.16375,0.04998,-0.01227
1511,-0.05012,-0.11475,-0.96743,0.00978,-0.00487,0.14391
1512,-0.00978,0.08203,-1.1565,-0.06075,-0.1271,-0.07825
1513,-0.04096,-0.00632,-0.88464,0.02336,0.01451,0.02948
1514,-0.04278,-0.05698,-1.00243,-0.0706,0.06342,0.10245
1515,-0.01075,0.10963,-1.05687,-0.03197,0.02853,-0.11643
1516,-0.03644,-0.03131,-0.92984,0.03256,0.09634,0.01286
1517,-0.00715,-0.04289,-1.0139,-0.10697,-0.01572,0.14723
1518,0.01485,0.05745,-1.02585,0.02922,-0.01425,-0.09536
1519,0.02689,0.0249,-1.00043,-0.05963,0.03491,0.00291
1520,0.00257,0.00163,-1.00075,-0.06934,-0.004,0.07536
1521,0.02869,0.00871,-1.04277,0.10939,-0.22524,-0.07569
1522,0.02962,0.06672,-1.01431,-0.15278,-0.08623,0.0423
1523,-0.01615,-0.02104,-0.92796,0.04681,0.04066,0.01707
1524,-0.00456,0.01037,-1.09433,0.11224,0.03482,-0.03958
1525,-0.01605,0.0494,-0.96277,-0.22215,0.03408,0.02672
1526,-0.04016,-0.05014,-0.95165,-0.04963,-0.06348,0.05873
1527,-0.03256,0.02803,-0.86192,0.0628,0.17073,0.03492
1528,-0.05252,-0.09053,-1.05316,0.02694,0.06542,0.08174
1529,-0.02555,0.06238,-1.07132,-0.1171,0.06383,-0.06695
1530,0.02196,0.00325,-0.87213,-0.08266,0.02942,0.04966
1531,-0.0055,-0.01928,-1.13314,-0.03406,-0.10579,0.03117
1532,0.03721,0.08903,-0.96223,0.05983,0.04628,-0.02939
1533,0.05062,-0.03692,-0.91892,-0.02299,0.05634,0.07056
1534,0.02516,0.08465,-1.18692,0.03298,-0.11445,-0.05837
1535,0.02945,0.0276,-0.86995,0.13571,0.077,-0.00426
1536,-0.0037,-0.0686,-0.97397,-0.05282,0.05541,0.11893
1537,-0.01474,0.07498,-1.15475,-0.1115,-0.02185,-0.08182
1538,-0.00872,-0.00757,-0.84891,0.0363,0.05416,0.01449
1539,-0.04416,-0.04706,-1.05955,0.00459,-0.0212,0.09219
1540,-0.04959,0.07918,-1.06514,-0.02732,0.02434,-0.06687
1541,-0.03343,-0.05736,-0.8459,-0.01193,0.05864,0.11073
1542,-0.03539,0.03937,-1.18343,-0.14132,-0.1274,-0.06094
1543,0.00943,0.08891,-0.91025,0.02353,0.02088,-0.0758
1544,0.02561,-0.08438,-0.94354,-0.08649,0.03423,0.13514
1545,0.01797,0.08388,-1.17298,-0.03866,-0.07311,-0.03854
1546,0.07807,0.08096,-0.87259,0.00353,0.07475,-0.04204
1547,0.00344,0.08809,-1.11586,-0.10236,-0.04404,-0.00817
1548,0.01607,0.08747,-0.93689,-0.01839,0.02235,0.06776
1549,-0.02645,0.0694,-0.96232,0.02913,-0.02842,0.06298
1550,-0.02645,0.0694,-0.96232,0.02913,-0.02842,0.06298
1551,-0.05631,0.23661,-1.0157,-0.09533,-0.00213,-0.09081
1552,-0.07441,0.13993,-1.00386,0.08841,-0.03352,0.019
1553,-0.10573,0.07732,-0.92973,0.05496,-0.01256,0.04743
1554,-0.04911,0.11824,-1.03022,-0.12762,0.03671,0.0162
1555,-0.00484,0.08824,-1.05392,-0.03219,0.01277,-0.04872
1556,0.03273,-0.03428,-0.96318,0.21559,-0.03238,0.07951
1557,0.04225,0.02471,-0.96863,0.11778,0.05548,-0.05212
1558,0.07469,0.02615,-1.02401,-0.12314,0.02111,-0.0653
1559,0.06773,-0.02696,-1.04525,-0.07502,0.02614,0.06595
1560,0.0474,-0.01508,-0.99929,0.03769,-0.04898,0.07314
1561,0.02484,0.15024,-0.98125,-0.02241,0.07553,-0.01733
1562,-0.0026,0.10495,-0.93379,-0.04351,0.08311,0.07719
1563,-0.09124,0.07216,-0.99614,-0.08769,0.01476,0.1068
1564,-0.05537,0.24149,-1.06466,-0.02663,-0.0356,-0.10482
1565,-0.07641,0.25336,-1.05613,0.03588,-0.01611,-0.20888
1566,-0.12024,0.08813,-0.92476,0.0145,0.07051,-0.03391
1567,-0.09014,-0.00668,-0.99907,-0.03832,0.05787,0.13338
1568,-0.03514,-0.02201,-1.00973,0.00798,0.04032,0.20309
1569,0.01698,0.02265,-0.99962,-0.00937,0.05753,0.19523
1570,0.072,0.05437,-0.97184,0.02931,0.07488,0.116
1571,0.06105,0.06734,-1.00256,0.00792,-0.00908,0.01065
1572,-0.04541,0.0843,-1.06677,0.02643,-0.04545,0.01052
1573,-0.02109,0.11455,-1.0113,0.01722,-0.04133,-0.0382
1574,-0.00311,0.12222,-0.97578,0.00197,-0.00062,-0.08065
1575,-0.00599,0.09634,-0.99714,-0.009,0.01385,-0.09508
1576,-0.01483,0.07751,-1.00458,-0.01434,0.01834,-0.09984
1577,-0.01018,0.06913,-0.99613,-0.00977,0.01405,-0.10983
1578,-0.00934,0.06307,-1.00142,-0.00923,0.01366,-0.09594
1579,-0.00991,0.05706,-1.00335,-0.00993,0.01749,-0.08223
1580,-0.01029,0.0515,-1.00252,-0.0102,0.01819,-0.06103
1581,-0.0082,0.0472,-1.00027,-0.00748,0.01094,-0.04438
1582,-0.00893,0.04696,-1.00245,-0.00785,0.01062,-0.02434
1583,-0.01032,0.04838,-1.00311,-0.00494,0.01375,-0.0098
1584,-0.0115,0.04857,-1.00444,-0.00717,0.00783,0.00294
1585,-0.01439,0.02045,-1.00178,0.00013,0.01229,0.01641
1586,-0.01165,0.00134,-1.00276,-0.00643,0.00906,0.00345
1587,-0.01167,0.01419,-1.00772,-0.00536,0.00933,-0.0019
1588,-0.01702,0.02343,-1.00345,-0.00585,0.01032,0.00693
1589,-0.0157,0.01402,-1.00211,-0.00389,0.00961,0.01138
1590,-0.01283,0.01068,-1.00261,-0.00818,0.01289,0.00358
1591,-0.01123,0.02087,-1.00305,-0.00437,0.00984,-0.00185
1592,-0.01442,0.01733,-1.00119,-0.00601,0.00816,0.00832
1593,-0.01311,0.01158,-1.00257,-0.00562,0.00915,0.00578
1594,-0.0125,0.01795,-1.00294,-0.00521,0.00785,0.00089
1595,-0.01119,0.01996,-1.00158,-0.0036,0.011,0.00426
1596,-0.01163,0.01136,-1.00155,-0.00395,0.00965,0.00767
1597,-0.00991,0.01726,-1.00223,-0.00611,0.00962,0.0037
1598,-0.01066,0.01754,-1.00282,-0.00485,0.00803,0.0059
1599,-0.01172,0.01432,-1.00327,-0.00726,0.00457,0.00706
1600,-0.01251,0.01565,-1.00224,-0.00758,0.00786,0.00551
1601,-0.01417,0.01708,-0.99824,0.00015,0.01365,0.00541
1602,-0.01732,0.01569,-1.00397,-0.00619,0.00786,0.00775
1603,-0.02065,0.01401,-1.00412,-0.00674,0.00837,0.00762
1604,-0.02183,0.01661,-1.00486,-0.00631,0.00543,0.01093
1605,-0.02208,0.01905,-1.0041,-0.00479,0.00501,0.00926
1606,-0.02294,0.01594,-1.00384,-0.00292,0.00724,0.00854
1607,-0.02284,0.01593,-1.00309,-0.00544,0.00714,0.00845
1608,-0.02232,0.01685,-1.0019,-0.00536,0.00638,0.00528
1609,-0.02193,0.01683,-1.00255,-0.00343,0.00582,0.00578
1610,-0.01592,0.01522,-1.0017,-0.00302,0.00846,0.00681
1611,-0.01358,0.01611,-1.00326,-0.00385,0.00902,0.00655
1612,-0.01022,0.01551,-1.00311,-0.00385,0.00814,0.00578
1613,-0.00786,0.01536,-1.00219,-0.00435,0.0092,0.00604
1614,-0.00776,0.01504,-1.00189,-0.00566,0.00507,0.0038
1615,-0.00501,0.01524,-1.0015,-0.00357,0.00777,0.00567
1616,-0.00366,0.01584,-1.00155,-0.00642,0.006,0.00456
1617,-0.00381,0.01657,-1.00113,-0.00864,0.00666,0.00511
1618,-0.00357,0.01566,-1.00092,-0.00558,0.00773,0.0049
1619,-0.00373,0.01703,-1.00342,-0.00655,0.00603,0.00485
1620,-0.005,0.01591,-1.00397,-0.00628,0.00699,0.00653
1621,-0.00748,0.01568,-1.00233,-0.00659,0.00462,0.00409
1622,-0.02572,0.01313,-1.00415,-0.00562,-0.00376,0.00765
1623,-0.01992,0.01886,-0.99817,-0.00607,0.02691,-0.01429
1624,0.068,-0.00162,-0.98802,0.00712,0.07098,0.02027
1625,0.15314,-0.00601,-0.99477,-0.0483,0.06971,0.02777
1626,0.21179,-0.00109,-1.04466,-0.06207,0.03465,0.08296
1627,0.24995,0.05671,-1.02654,-0.02505,0.03003,0.044
1628,0.29175,0.08583,-0.98021,0.0935,0.06945,-0.04399
1629,0.29641,0.03066,-0.94555,-0.00955,-0.07463,-0.09144
1630,0.33326,-0.02256,-0.99235,-0.02749,0.1072,-0.00034
1631,0.2248,-0.07618,-1.08513,-0.15832,-0.05392,0.07241
1632,0.15872,0.02825,-1.0527,0.0256,-0.07029,-0.08036
1633,0.11758,0.05684,-0.85239,0.08219,0.06027,-0.06867
1634,-0.03753,-0.00927,-1.07172,-0.12261,0.00635,0.09078
1635,-0.16989,0.02846,-1.09362,0.03469,-0.07613,-0.04406
1636,-0.19366,0.04513,-0.88526,0.13143,0.00519,-0.0441
1637,-0.22419,0.0143,-0.9453,-0.02481,0.14604,0.00748
1638,-0.16984,0.03569,-1.06896,0.01547,-0.05792,-0.02906
1639,-0.16984,0.03569,-1.06896,0.01547,-0.05792,-0.02906
1640,-0.01594,0.06816,-0.87969,0.07016,0.12679,-0.01262
1641,0.19808,-0.0236,-1.04414,-0.07134,0.1272,0.04314
1642,0.21401,-0.05074,-1.09894,-0.09613,-0.01015,0.14398
1643,0.20168,0.06852,-1.00501,0.06524,0.00541,-0.01508
1644,0.20168,0.06852,-1.00501,0.06524,0.00541,-0.01508
1645,0.09197,-0.01349,-1.10643,-0.07495,-0.06611,0.07213
1646,-0.03071,0.00106,-1.03045,0.02944,-0.00043,0.00341
1647,-0.04589,0.03998,-0.83996,0.05568,0.10532,-0.04877
1648,-0.04589,0.03998,-0.83996,0.05568,0.10532,-0.04877
1649,-0.2388,-0.02418,-1.08939,-0.00866,-0.04028,0.04587
1650,-0.15982,0.02497,-0.83318,0.02431,0.07916,-0.03583
1651,-0.09921,0.0542,-1.02033,-0.03939,0.07498,-0.03937
1652,-0.10345,-0.05385,-1.11699,-0.01662,-0.05465,0.17
1653,-0.00763,0.03461,-1.00677,0.0148,-0.00092,0.0071
1654,0.17385,0.08552,-0.88167,0.00664,0.06565,-0.07129
1655,0.19227,-0.00099,-1.01252,-0.0578,0.08495,0.03547
1656,0.17588,-0.03769,-1.11135,-0.03799,-0.0826,0.03002
1657,0.15727,0.03916,-0.94933,0.01168,-0.04353,-0.04992
1658,0.13261,0.01494,-0.95022,-0.01882,0.07647,0.00713
1659,0.02677,-0.01366,-1.13475,0.03295,-0.13392,0.01461
1660,-0.05187,0.02529,-0.90998,0.042,-0.06164,-0.02382
1661,-0.07835,0.02214,-0.94696,-0.04547,0.0993,-0.03567
1662,-0.18145,-0.01635,-1.18358,0.03325,-0.10106,0.02848
1663,-0.18906,0.00238,-0.89158,0.05902,-0.03932,0.04884
1664,-0.10199,0.05474,-0.9311,-0.00847,0.10123,-0.02451
1665,-0.07023,0.0384,-1.10664,-0.02347,-0.00379,0.03909
1666,-0.07216,-0.01824,-1.04861,0.01874,-0.02542,0.06011
1667,0.08343,0.00582,-0.87292,0.04281,0.1065,0.01147
1668,0.17602,0.05192,-0.99885,-0.10164,0.13499,-0.01022
1669,0.12543,-0.02746,-1.1692,0.01689,-0.07083,0.05741
1670,0.15276,0.0272,-0.8889,0.0422,-0.00332,-0.04892
1671,0.15181,0.05371,-0.94335,-0.01553,0.07248,-0.0266
1672,0.02355,-0.0187,-1.19005,0.01866,-0.08783,0.02109
1673,0.00998,0.02844,-0.83578,0.10247,-0.01427,-0.06221
1674,-0.04139,0.00344,-1.012,-0.07328,0.00805,0.02725
1675,-0.14485,0.01933,-0.86749,0.07511,0.0082,-0.00882
1676,-0.12373,-0.01812,-0.97616,-0.03791,0.05139,0.07731
1677,-0.11426,0.03901,-1.15853,0.00402,-0.05501,-0.02294
1678,-0.05301,0.02546,-0.88712,0.06051,0.03035,-0.00041
1679,0.05934,0.00502,-0.93993,-0.01803,0.09511,0.0398
1680,0.07404,-0.01076,-1.1407,-0.14597,0.00949,0.08463
1681,0.10994,0.03016,-0.97332,0.05837,0.02037,-0.05384
1682,0.16523,0.0176,-0.89454,0.07654,0.01083,0.01148
1683,0.09415,0.01069,-1.16678,-0.15483,-0.05986,0.05378
1684,0.07325,0.05243,-0.9617,0.07901,-0.00178,-0.10394
1685,0.03726,-0.04458,-0.87955,0.00279,0.00423,0.09876
1686,-0.05296,0.01673,-1.17028,-0.00197,-0.14171,0.01796
1687,-0.06761,0.07046,-0.92961,0.07968,0.00696,-0.10775
1688,-0.1213,-0.0515,-0.9722,-0.09306,-0.03275,0.1327
1689,-0.13694,0.02408,-1.11325,0.0028,-0.18145,-0.02653
1690,-0.0822,0.01785,-0.92478,0.06232,0.08243,-0.03752
1691,-0.05908,-0.03078,-0.95556,-0.03898,0.02284,0.10831
1692,-0.01092,0.03114,-1.09429,-0.04767,0.03225,-0.06474
1693,0.07074,0.05738,-0.97804,0.09284,0.07461,-0.07572
1694,0.06841,-0.04625,-0.9222,-0.00075,0.05372,0.11945
1695,0.11237,0.02305,-1.08677,-0.03868,0.02108,-0.00352
1696,0.13372,0.06451,-0.99476,0.09684,0.05624,-0.09127
1697,0.06058,-0.05097,-0.96224,-0.17329,-0.03963,0.19406
1698,0.03898,0.03095,-1.05121,-0.01247,-0.04061,-0.01075
1699,0.03255,0.08187,-0.95274,0.0544,0.12903,-0.13302
1700,-0.08643,-0.05293,-1.01815,-0.10058,0.02516,0.16251
1701,-0.0873,0.04218,-1.03906,0.06049,-0.07194,-0.13993
1702,-0.08923,0.01074,-0.95824,0.04742,0.00396,0.02604
1703,-0.12849,-0.03415,-0.99462,-0.17777,0.02249,0.0597
1704,-0.05129,0.05736,-1.00809,0.08674,0.00186,-0.10342
1705,-0.03547,-0.01073,-1.00164,-0.02884,0.02209,0.07963
1706,-0.01447,-0.02569,-1.0004,-0.09492,-0.01878,0.07241
1707,0.0989,0.03667,-0.9793,0.08831,0.05262,-0.06285
1708,0.0976,0.02568,-1.04572,-0.08497,0.00654,0.04157
1709,0.0836,0.01839,-1.00726,-0.1198,-0.06701,0.00954
1710,0.11745,0.01968,-0.96849,0.08832,0.00075,-0.06103
1711,0.00951,-0.03218,-1.06066,-0.07346,0.00223,0.12637
1712,0.02777,0.02481,-0.92818,-0.00319,-0.0173,-0.0103
1713,0.00033,0.07694,-1.06424,0.10873,-0.062,-0.17427
1714,-0.12162,-0.03907,-0.98918,0.02288,-0.00558,0.13072
1715,-0.07204,0.02818,-0.92668,-0.00854,-0.00811,-0.05758
1716,-0.08933,0.00223,-1.11731,0.02476,-0.09734,-0.01361
1717,-0.10872,-0.01744,-0.95111,-0.15294,0.0399,0.07479
1718,-0.00941,0.03858,-0.95633,-0.03554,0.08414,-0.04128
1719,-0.00974,0.01912,-1.09786,0.11754,-0.06065,-0.00587
1720,-0.00109,-0.01534,-0.94109,-0.02406,0.03745,0.08796
1721,0.10913,0.02781,-0.95483,0.00628,0.09772,-0.01705
1722,0.06198,0.00774,-0.94603,-0.05616,-0.05259,0.01787
1723,0.08033,0.03379,-0.9554,0.02056,0.05805,-0.04819
1724,-0.00123,-0.01314,-1.08974,-0.04154,0.01999,0.03056
1725,-0.01475,0.02392,-0.91785,-0.03794,-0.02638,0.0119
1726,-0.01475,0.02392,-0.91785,-0.03794,-0.02638,0.0119
1727,-0.09711,0.01114,-0.99681,-0.0009,0.02784,0.01336
1728,-0.08151,0.00241,-0.95487,-0.01607,0.04617,-0.00408
1729,-0.07122,-0.01761,-1.10338,0.00238,-0.12136,0.01282
1730,-0.06789,0.00659,-0.94291,-0.02428,-0.04907,0.02836
1731,-0.00353,0.00383,-0.97694,0.03785,0.00463,0.00532
1732,0.0139,0.02159,-1.10351,0.00625,-0.094,0.02523
1733,0.03304,0.01034,-0.94265,0.02501,-0.01975,0.01213
1734,0.09055,0.01959,-0.95783,-0.01281,0.06621,0.00363
1735,0.04685,0.02249,-1.14485,-0.024,-0.03443,0.02135
1736,0.07749,0.01397,-0.87831,0.0098,0.02132,-0.04797
1737,0.04508,-0.00907,-1.04275,-0.02913,-0.00381,0.01805
1738,-0.03822,-0.01149,-1.02941,-0.03486,0.02654,0.01562
1739,0.00408,0.02801,-0.90158,0.00323,0.01229,-0.05448
1740,-0.06789,0.00254,-1.15985,0.04541,-0.13845,0.02815
1741,-0.0881,0.02788,-0.92143,0.03172,-0.02069,-0.03295
1742,-0.059,0.00838,-0.94251,0.00443,0.08329,0.01719
1743,-0.08002,-0.00974,-1.12246,0.06425,0.0189,0.04574
1744,-0.03284,0.04128,-0.89635,0.0016,0.05232,-0.03489
1745,0.02066,0.00401,-1.00545,-0.01088,0.05161,0.01633
1746,-0.00715,0.01586,-1.09728,-0.03152,-0.00933,-0.03566
1747,0.05961,-0.02493,-0.86505,-0.0138,0.11318,0.04045
1748,0.02999,-0.02663,-1.09237,-0.07058,-0.03722,0.11016
1749,-0.04526,0.06551,-1.02831,-0.04825,-0.00295,-0.02761
1750,-0.04743,0.06025,-0.87025,0.0591,0.0672,-0.04792
1751,-0.1704,-0.00476,-1.13538,0.06913,-0.16168,0.04454
1752,-0.23392,0.03119,-1.04399,0.03138,-0.11421,-0.03194
1753,-0.20606,0.01036,-0.83538,-0.00363,0.0941,-0.03553
1754,-0.23621,-0.04158,-1.00021,-0.00659,0.09592,0.04637
1755,-0.2012,-0.03333,-1.11309,-0.055,-0.00427,0.05379
1756,-0.12679,0.02489,-1.00002,0.00064,0.01803,-0.00065
1757,-0.02161,0.05022,-0.88837,0.04733,0.09716,0.02011
1758,0.03631,0.01733,-1.02789,-0.02424,0.05587,0.02148
1759,0.07926,-0.01221,-1.02783,-0.04768,0.05338,0.01854
1760,0.08631,-0.0206,-1.05586,-0.03421,-0.0332,0.02867
1761,0.06479,0.05191,-0.97239,0.00865,0.03154,-0.03412
1762,0.04039,0.02657,-0.94456,-0.02283,0.04099,-0.00123
1763,-0.02881,-0.00774,-1.02216,-0.00772,0.02735,0.01568
1764,-0.14542,-0.04527,-1.09007,0.04747,-0.14194,0.07666
1765,-0.20349,0.03074,-1.02244,-0.03549,-0.04904,0.00338
1766,-0.22845,0.03161,-0.89656,-0.0197,0.07242,0.00041
1767,-0.20132,0.00445,-0.98603,0.00664,0.08008,0.01502
1768,-0.00914,-0.00083,-1.01046,-0.06497,0.02671,-0.02312
1769,-0.01698,-0.00594,-1.06264,0.01171,-0.02799,0.01174
1770,-0.02522,0.0175,-1.01761,-0.04315,0.01638,0.00155
1771,-0.03869,-0.01129,-1.02136,4e-05,-0.01672,0.06468
1772,-0.05357,0.05235,-1.00613,0.01262,-0.01851,-0.02134
1773,-0.04393,0.05272,-0.977,0.03033,-0.01544,-0.00544
1774,-0.02164,0.01115,-0.98612,0.0179,0.01319,-0.01435
1775,-0.02765,-0.01257,-1.00018,0.00679,0.01202,-0.00614
1776,-0.03128,-0.0235,-0.99638,-0.00036,0.02403,0.02814
1777,-0.0114,0.01491,-0.99987,-0.00569,0.02657,0.00039
1778,-0.00738,0.02006,-1.00606,-0.00983,0.01935,-0.00107
1779,-0.00405,0.00977,-1.00355,-0.01846,0.01286,-0.01739
1780,0.00178,0.00215,-1.00192,-0.01919,0.01075,-0.01683
1781,-0.01767,0.00547,-1.00627,-0.01386,0.02737,-0.00036
1782,-0.01969,0.01767,-1.00332,-0.00623,0.02478,0.0117
1783,-0.02333,0.01154,-1.00854,-0.00978,0.01051,0.03036
1784,-0.04344,-0.01906,-1.01219,-0.02487,0.01229,0.06282
1785,-0.03958,-0.01513,-1.00837,-0.04224,0.01258,0.05648
1786,-0.0342,0.02942,-1.00408,-0.00011,-0.00286,0.02677
1787,-0.04282,0.07198,-0.99742,0.00827,-0.00409,-0.01559
1788,-0.03941,0.03053,-0.99369,0.00881,0.00202,-0.00423
1789,-0.03681,-0.01463,-0.99566,0.00539,0.00782,0.00029
1790,-0.03284,-0.00418,-0.99862,0.00227,0.00685,0.00335
1791,-0.02262,0.02491,-0.9987,0.00577,0.0111,0.00138
1792,-0.0207,0.00528,-0.99865,-0.00041,0.00919,0.01329
1793,-0.0171,0.00227,-0.99983,-0.00327,0.0102,0.00929
1794,-0.01439,0.01507,-1.00001,-0.00419,0.01566,-0.00075
1795,-0.01721,0.00421,-1.00277,-0.00472,0.01217,0.00789
1796,-0.01483,0.01207,-1.00201,-0.00469,0.01318,0.00441
1797,-0.01498,0.01301,-1.00159,-0.00558,0.01069,0.00079
1798,-0.01705,0.00773,-1.00233,-0.0029,0.0108,0.00406
1799,-0.01375,0.01027,-1.00225,-0.00367,0.01065,0.00281
1800,-0.01152,0.01043,-1.00413,-0.00731,0.00902,0.00468
1801,-0.01716,0.00801,-1.00309,-0.00564,0.00651,0.00601
1802,-0.01509,0.00985,-1.00105,-0.00573,0.00716,0.00457
1803,-0.01457,0.00786,-1.00253,-0.00632,0.00695,0.00935
1804,-0.01428,0.01093,-1.00247,-0.00652,0.00712,0.00413
1805,-0.01273,0.01093,-1.00301,-0.0046,0.01122,0.00488
1806,-0.01446,0.0102,-1.0032,-0.00838,0.00991,0.00478
1807,-0.01518,0.01184,-1.00439,-0.00614,0.01013,0.00602
1808,-0.01606,0.01093,-1.00353,-0.00921,0.00677,0.00687
1809,-0.01832,0.011,-1.00275,-0.01032,0.00764,0.0045
1810,-0.02145,0.01035,-1.00283,-0.00656,0.00786,0.00795
1811,-0.02264,0.01075,-1.00143,-0.00498,0.00608,0.0079
1812,-0.02122,0.01015,-1.00381,-0.00679,0.00636,0.00519
1813,-0.02109,0.00971,-1.00389,-0.00681,0.00871,0.00671
1814,-0.02086,0.0093,-1.00339,-0.0048,0.007,0.00603
1815,-0.01904,0.01094,-1.0041,-0.00537,0.00466,0.00749
1816,-0.01612,0.00893,-1.00287,-0.00578,0.00834,0.00816
1817,-0.01145,0.01013,-1.0042,-0.00787,0.0105,0.00813
1818,-0.00843,0.01091,-1.0048,-0.00933,0.00512,0.00399
1819,0.00574,0.02081,-0.99835,-0.00177,0.02038,-0.01435
1820,0.0304,0.06286,-0.98847,-0.0548,0.03553,-0.0095
1821,0.02335,0.12414,-1.00372,-0.10147,0.03068,0.03144
1822,-0.00142,0.19702,-1.02513,-0.055,-0.02649,0.04859
1823,-0.0231,0.24923,-1.07586,-0.03871,-0.07004,0.11428
1824,-0.07062,0.2444,-0.92446,0.02576,-0.0367,0.17195
1825,-0.07571,0.26352,-0.99278,-0.25016,-0.10576,0.15673
1826,-0.0396,0.36831,-1.05226,-0.03066,-0.10133,0.03406
1827,0.00073,0.31259,-0.96264,-0.04728,-0.00149,-0.17915
1828,-0.02467,0.20981,-0.98199,0.02407,-0.15621,-0.11927
1829,-0.03053,0.12254,-1.04115,0.11208,0.00824,-0.1161
1830,-0.00034,-0.01439,-0.94534,0.11045,0.09644,-0.04187
1831,0.00582,0.00471,-1.0439,-0.11471,0.00858,-0.06641
1832,0.01574,-0.09587,-1.06327,0.05663,-0.04731,-0.09059
1833,0.07196,-0.13709,-0.88895,0.07785,0.07037,-0.06301
1834,0.05707,-0.07357,-0.99972,-0.16906,0.13617,-0.06418
1835,0.00357,-0.12891,-1.1403,-0.10936,-0.07727,0.0431
1836,-0.01972,-0.07186,-0.92597,0.05005,-0.07916,0.06272
1837,0.00571,0.07981,-0.98608,0.02768,0.04055,0.0058
1838,-0.00889,0.15243,-0.97262,-0.1209,0.10119,-0.05497
1839,-0.05341,0.14843,-1.09399,-0.10385,-0.07889,0.01172
1840,-0.0838,0.10705,-0.99223,0.0402,-0.06634,-0.00552
1841,-0.04221,0.10462,-0.90588,0.00046,0.11492,0.05808
1842,-0.0103,0.17963,-1.01585,-0.05875,0.05669,-0.07943
1843,-0.06641,-0.01029,-1.09788,0.04939,-0.06865,0.09395
1844,-0.00371,-0.02384,-0.8797,-0.0761,0.12492,0.0257
1845,0.07401,0.03226,-1.05167,-0.04537,0.11953,-0.08836
1846,-0.01422,-0.15876,-1.11119,-0.04339,-0.12579,0.11539
1847,0.01167,-0.10436,-0.95131,-0.11198,-0.0568,0.02038
1848,0.00511,-0.07952,-1.06014,0.07885,-0.09491,0.06762
1849,-0.06758,-0.0826,-1.07013,0.02695,-0.08203,0.21377
1850,0.00616,0.12466,-0.9168,-0.11992,0.07646,-0.03637
1851,0.03889,0.20457,-0.97081,0.05026,0.03364,-0.08489
1852,0.03889,0.20457,-0.97081,0.05026,0.03364,-0.08489
1853,-0.07495,0.0255,-0.9895,-0.10664,0.01486,0.156
1854,0.0113,0.19831,-0.96642,0.09795,0.0318,-0.13716
1855,-0.03785,-0.00502,-0.99659,0.11246,0.0362,0.04255
1856,-0.0657,-0.06206,-1.03437,-0.07745,-0.05129,0.12986
1857,0.04587,0.07719,-1.00995,0.04231,-0.02267,-0.14387
1858,0.02158,-0.06804,-0.96388,0.09372,0.0221,0.00274
1859,-0.02609,-0.08401,-1.05025,-0.25432,-0.03569,0.12433
1860,0.03544,-0.00781,-1.06782,0.00105,-0.0283,-0.05709
1861,0.03843,-0.01819,-0.90298,0.15654,-0.02069,-0.0042
1862,0.00598,0.06255,-1.02916,-0.16854,-0.04397,-0.02385
1863,-0.02956,0.03906,-1.1084,0.06127,0.00254,-0.06424
1864,-0.01527,0.0276,-0.86608,0.13974,0.0902,0.03377
1865,-0.01843,0.08168,-0.95567,-0.07116,0.09403,0.04013
1866,-0.04306,0.09265,-1.16209,-0.034,-0.01472,-0.0096
1867,-0.04078,0.05862,-0.89659,0.09306,0.02701,-0.01781
1868,-0.00112,0.06541,-0.91323,0.03936,0.04102,-0.02614
1869,-0.05532,-0.00675,-1.20664,-0.01552,-0.08695,-0.00623
1870,-0.02598,-0.02867,-0.90277,-0.09346,0.04992,0.01933
1871,0.03865,0.00887,-0.91876,-0.05926,0.12423,-0.02646
1872,-0.01224,-0.06308,-1.17142,-0.0728,-0.10892,0.06005
1873,-0.00953,-0.02409,-0.95009,-0.154,-0.02968,0.01041
1874,0.05079,0.03115,-0.95136,0.02379,0.17413,-0.01642
1875,0.02613,-0.0274,-1.07138,0.04542,-0.05028,0.05533
1876,-0.04158,-0.01184,-1.00018,-0.09045,-0.0427,0.06217
1877,0.01531,0.11194,-0.93464,-0.01287,0.11513,-0.03801
1878,-0.01464,0.01933,-1.06856,0.12465,-0.11221,0.02934
1879,-0.08494,0.00185,-1.03127,-0.12267,-0.04772,0.14055
1880,0.01549,0.14643,-0.90897,0.01236,0.14188,-0.10724
1881,-0.0081,0.01825,-1.01273,0.12108,-0.03239,0.00018
1882,-0.07749,-0.0235,-1.02813,-0.02286,-0.07757,0.11079
1883,0.04321,0.07676,-1.03027,0.07945,0.09328,-0.15053
1884,0.00743,-0.03329,-0.90824,0.14568,0.07293,0.03018
1885,-0.04908,-0.07478,-1.12889,-0.13727,-0.08461,0.17286
1886,0.04281,0.05952,-0.99214,0.05321,0.0008,-0.15488
1887,0.02934,-0.00944,-0.90066,-0.04805,0.08616,0.01981
1888,-0.04135,-0.02496,-1.11351,-0.07336,-0.17617,0.11804
1889,0.0174,0.02372,-0.88179,-0.01465,0.18626,-0.00172
1890,-0.03347,0.03445,-1.11613,-0.13843,0.02989,0.05694
1891,-0.01813,0.00068,-0.98779,0.15789,-0.11154,0.00291
1892,0.00535,0.03914,-0.88745,0.0606,0.06814,0.07445
1893,-0.02097,0.03726,-1.14267,-0.01995,-0.00844,0.04882
1894,-0.01754,0.04298,-0.94246,0.09058,0.0044,-0.02485
1895,0.01167,0.06921,-0.98573,0.08775,0.02936,-0.05404
1896,-0.03362,-0.05609,-1.11143,0.06977,0.01572,0.0453
1897,-0.03362,-0.05609,-1.11143,0.06977,0.01572,0.0453
1898,0.01996,0.0455,-1.0271,-0.01429,0.12422,-0.02861
1899,-0.0086,-0.05536,-1.0999,0.09834,-0.08477,0.05217
1900,-0.02345,0.03428,-0.8861,0.00986,-0.03759,-0.05597
1901,0.01166,0.02963,-1.0491,0.11321,0.10076,-0.01994
1902,-0.03272,-0.07788,-1.0377,-0.03562,-0.01911,0.14795
1903,0.0007,0.09864,-0.92671,-0.0491,-0.06554,-0.05713
1904,0.0467,0.06832,-1.02798,0.10038,0.06888,-0.04616
1905,-0.04732,-0.04052,-1.01989,-0.17036,0.05024,0.12089
1906,-0.00845,0.08922,-1.03196,-0.06843,-0.05552,-0.0442
1907,0.03341,-0.00362,-0.97266,0.12445,-0.04532,0.00494
1908,-0.05323,-0.00888,-1.01398,-0.10201,-0.04558,0.06316
1909,-0.00951,0.07906,-1.03362,0.02373,0.05454,-0.09852
1910,0.00785,-0.0508,-0.91267,0.12915,-0.01612,0.03793
1911,-0.0513,-0.01605,-1.09422,-0.03696,-0.07955,0.09374
1912,0.01199,0.04246,-1.03528,0.07804,0.02668,-0.11151
1913,0.02372,-0.01805,-0.83996,-0.00107,0.1724,0.04276
1914,-0.03783,-0.00505,-1.16608,-0.15943,-0.04467,0.08149
1915,0.0206,0.0354,-0.9412,0.10148,-0.03185,-0.10972
1916,0.02966,0.00988,-0.91311,0.08866,-0.06171,0.09025
1917,-0.05347,0.00323,-1.15108,-0.02836,-0.02775,0.04214
1918,0.05952,0.10551,-0.90987,0.04469,0.00944,-0.11577
1919,-0.01978,-0.0058,-1.03017,-0.02697,-0.08845,0.10049
1920,-0.04307,-0.00476,-1.0656,0.12142,-0.0753,0.01506
1921,0.02847,0.04874,-0.88358,-0.17411,0.14285,-0.06024
1922,-0.01944,-0.01036,-1.09407,-0.07664,0.0421,0.09029
1923,-0.02729,-0.05444,-0.99123,0.11713,-0.08376,0.01295
1924,0.01992,0.09077,-0.90685,0.03497,0.04451,-0.12609
1925,-0.03591,-0.05518,-1.12596,0.05404,0.02813,0.08954
1926,-0.00838,-0.03571,-0.92656,-0.02334,-0.06009,0.01643
1927,0.02021,0.07743,-1.02812,-0.04706,-0.03391,-0.04233
1928,-0.03046,-0.03655,-1.07795,0.12574,0.00784,0.05495
1929,0.01358,0.0045,-0.86257,-0.13264,0.07897,0.02228
1930,0.01368,0.05471,-1.11298,-0.12818,-0.05083,0.04281
1931,-0.01265,0.00382,-1.04634,0.13168,-0.03381,0.02659
1932,0.02647,0.07027,-0.80716,0.09086,0.10057,-0.06434
1933,-0.02707,0.00456,-1.22112,-0.02801,-0.00861,0.06869
1934,0.01558,0.00818,-0.90392,-0.0127,-0.02742,-0.02364
1935,0.02275,0.05731,-0.94857,0.04362,0.01096,-0.04908
1936,-0.05391,-0.06317,-1.13059,0.02455,0.00991,0.09568
1937,0.02964,0.02468,-0.84647,-0.04648,0.12532,-0.07045
1938,-0.03478,-0.03718,-1.04127,0.05943,-0.05097,0.05264
1939,-0.03478,-0.03718,-1.04127,0.05943,-0.05097,0.05264
1940,-0.03248,-0.01724,-1.18104,-0.00788,-0.01974,0.09525
1941,-0.03248,-0.01724,-1.18104,-0.00788,-0.01974,0.09525
1942,0.03705,0.01113,-0.86952,0.23978,-0.01746,-0.04495
1943,-0.07928,-0.13963,-1.17964,0.0234,0.0148,0.08688
1944,0.02182,-0.0835,-0.9293,0.12722,-0.02652,-0.09937
1945,0.02182,-0.0835,-0.9293,0.12722,-0.02652,-0.09937
1946,-0.07169,-0.19882,-1.12171,-0.11107,-0.02076,0.0535
1947,-0.03461,-0.1868,-0.9773,0.12715,-0.05629,0.02006
1948,-0.03461,-0.1868,-0.9773,0.12715,-0.05629,0.02006
1949,0.02027,-0.00859,-1.04737,-0.16987,0.03174,-0.07676
1950,-0.03407,-0.07475,-1.04843,-0.04115,-0.02155,0.09368
1951,-0.03407,-0.07475,-1.04843,-0.04115,-0.02155,0.09368
1952,0.04319,0.13746,-0.97282,0.04414,0.00754,-0.09237
1953,0.06062,0.09938,-1.02659,0.00564,0.03879,-0.09391
1954,-0.04352,-0.07173,-1.01267,-0.19198,0.00504,0.12504
1955,-0.04352,-0.07173,-1.01267,-0.19198,0.00504,0.12504
1956,0.01945,-0.03577,-0.97294,0.10332,-0.07893,-0.01473
1957,-0.02121,-0.09121,-1.03494,-0.00856,-0.00399,0.02772
1958,-0.02664,-0.17953,-1.00202,0.06981,-0.03,0.02917
1959,-0.03442,-0.20875,-0.99615,-0.0499,0.0362,0.03926
1960,-0.02739,-0.16673,-0.99096,-0.07384,0.06103,-0.01952
1961,-0.0228,-0.10805,-1.00458,8e-05,-0.00169,-0.06926
1962,-0.00901,-0.06795,-1.01844,0.00428,0.00366,-0.05865
1963,-0.00184,-0.04697,-1.00577,-0.00224,-0.0301,0.03008
1964,-0.01103,-0.06133,-0.9976,0.01167,0.00188,0.02042
1965,0.01148,-0.03263,-1.00015,0.01259,0.011,-0.03368
1966,-0.00905,-0.06106,-1.00704,0.00773,-0.00561,0.02463
1967,-0.01757,-0.08127,-1.00399,0.01034,0.00494,0.05946
1968,-0.01689,-0.09408,-1.00365,-0.01408,0.02178,0.10202
1969,-0.02923,-0.11721,-1.0011,-0.01268,0.00925,0.18555
1970,-0.03106,-0.1007,-1.00087,-0.0126,0.00756,0.23087
1971,-0.01491,-0.02615,-1.00523,-0.01606,0.01429,0.21116
1972,-0.0068,0.01137,-0.99948,-0.00762,0.01179,0.16739
1973,-0.00506,0.01995,-1.003,-0.01572,0.00749,0.10693
1974,-0.00299,0.01771,-1.00428,-0.00638,0.00664,0.04864
1975,-0.00848,0.02015,-1.00406,-0.01247,0.00364,0.00309
1976,-0.02454,0.01219,-1.00289,-0.00393,0.00459,0.01303
1977,-0.02411,0.00154,-1.0015,-0.00804,0.00616,0.00754
1978,-0.02397,0.00051,-1.00199,-0.00653,0.0077,0.00067
1979,-0.02416,0.01138,-1.00303,-0.00382,0.00429,0.00842
1980,-0.02046,0.0049,-1.00261,-0.00496,0.00693,0.00457
1981,-0.01596,0.00245,-1.0032,-0.00492,0.01047,0.00399
1982,-0.01377,0.00607,-1.0022,-0.00332,0.00653,0.00731
1983,-0.01065,0.00691,-1.00358,-0.00197,0.00579,0.00688
1984,-0.00673,0.00149,-1.00308,-0.0029,0.0074,0.00476
1985,-0.00491,0.00496,-1.00125,-0.00248,0.00813,0.00348
1986,-0.00363,0.00565,-1.00161,-0.00543,0.01044,0.00645
1987,-0.0029,0.00328,-1.00204,-0.0038,0.00649,0.00846
1988,-0.0019,0.00535,-1.00241,-0.00631,0.00881,0.00775
1989,-0.00334,0.00635,-1.0019,-0.00397,0.00528,0.00711
1990,-0.00526,0.00451,-1.00234,-0.00624,0.00543,0.00533
1991,-0.00745,0.0048,-1.00364,-0.00564,0.00867,0.00578
1992,-0.011,0.00658,-1.00447,-0.00461,0.00857,0.00652
1993,-0.01339,0.00481,-1.00187,-0.00819,0.00518,0.00674
1994,-0.01556,0.00413,-1.00208,-0.00449,0.00704,0.00873
1995,-0.01684,0.00575,-1.00275,-0.00758,0.00677,0.00823
1996,-0.01604,0.00536,-1.00291,-0.00916,0.00716,0.00567
1997,-0.01583,0.00462,-1.00152,-0.00386,0.00902,0.00918
1998,-0.01351,0.00564,-1.00089,-0.00199,0.00828,0.00407
1999,-0.0117,0.00583,-1.00285,-0.00536,0.0101,0.00783
2000,-0.00936,0.00506,-1.00305,-0.00455,0.00693,0.00504
2001,-0.00866,0.00496,-1.00307,-0.00729,0.00848,0.00586
2002,-0.00815,0.00501,-1.00308,-0.00632,0.00886,0.00688
2003,-0.00678,0.00507,-1.00361,-0.00717,0.00627,0.00497
2004,-0.00691,0.00553,-1.00133,-0.0077,0.00649,0.00365
2005,-0.00869,0.00501,-1.00228,-0.00804,0.00635,0.0074
2006,-0.00965,0.0049,-1.00289,-0.00715,0.01012,0.00508
2007,-0.01076,0.00576,-1.00164,-0.00618,0.00677,0.00852
2008,-0.01103,0.00528,-1.00232,-0.0086,0.00793,0.00586
2009,-0.01212,0.00483,-1.00248,-0.00677,0.0057,0.00645
2010,-0.01171,0.00523,-1.00304,-0.00584,0.00605,0.00734
2011,-0.0133,0.00405,-1.00328,-0.00414,0.00829,0.00582
2012,-0.01336,0.00545,-1.00423,-0.00581,0.00717,0.0059
2013,-0.01307,0.008,-1.00334,-0.0049,0.00218,0.00239
2014,-0.0573,0.01439,-1.00251,0.00629,-0.01182,0.00545
2015,-0.13467,0.02666,-1.01288,0.00302,-0.03785,-0.01631
2016,-0.22539,-0.00047,-1.03333,0.04539,-0.05434,0.00565
2017,-0.28275,0.04747,-0.99873,0.00598,-0.01904,-0.07621
2018,-0.32962,0.06607,-0.99045,-0.04822,-0.02847,-0.04967
2019,-0.35456,-0.03585,-0.96236,-0.08029,0.05082,0.1159
2020,-0.33358,0.00311,-1.00805,0.02704,0.00341,-0.03734
2021,-0.28225,-0.03797,-0.97771,0.01716,0.07641,0.10224
2022,-0.18113,0.00449,-1.01449,-0.17135,0.05171,-0.01047
2023,-0.12589,0.03299,-0.98696,0.14108,0.05925,-0.0049
2024,-0.08074,-0.13044,-0.99825,0.1483,0.02306,0.11956
2025,0.02009,0.00325,-1.02648,-0.1273,0.01089,0.0586
2026,0.15461,0.14538,-0.96248,-0.19298,0.12492,-0.12537
2027,0.14534,-0.09864,-1.02148,0.05103,0.05491,0.13385
2028,0.16947,0.02928,-1.04376,-0.05981,-0.04848,-0.00303
2029,0.04751,-0.05347,-1.0487,-0.0109,-0.04135,0.05908
2030,-0.06614,-0.12312,-0.9113,0.12615,0.0356,0.21905
2031,-0.06147,0.08406,-1.05848,0.06583,-0.02994,-0.11198
2032,-0.1537,0.08015,-1.03464,-0.17212,-0.02911,-0.07549
2033,-0.22683,-0.04073,-1.00482,0.02441,-0.02061,0.04193
2034,-0.19733,-0.09047,-0.89513,0.30464,0.06731,0.01869
2035,-0.15754,0.03091,-1.00909,-0.10636,0.10281,0.01989
2036,-0.09942,0.06397,-1.07922,-0.08279,0.01192,0.01429
2037,-0.01777,-0.10214,-0.8928,0.20802,0.09439,0.11891
2038,0.06268,0.05746,-0.99544,-0.19987,0.09414,-0.01679
2039,0.14778,0.12442,-1.10707,-0.21778,0.12432,-0.10376
2040,0.11544,-0.1264,-0.90403,0.28057,0.05905,0.12467
2041,0.10541,0.03527,-1.01972,-0.16803,0.01633,-0.00423
2042,0.12503,0.15554,-1.09254,-0.09858,-0.02851,-0.1689
2043,8e-05,-0.13619,-0.95747,0.12815,-0.01278,0.14205
2044,-0.06315,-0.05895,-0.95759,0.03667,-0.11224,0.06617
2045,-0.08555,0.14389,-1.06569,-0.22038,-0.02661,-0.15006
2046,-0.15648,-0.02689,-1.02879,0.01922,-0.00351,0.04342
2047,-0.18283,-0.1288,-0.90792,0.25316,-0.04025,0.07841
2048,-0.14476,0.06448,-1.00518,-0.1275,0.03186,-0.06466
2049,-0.09039,0.08306,-1.08152,-0.1382,0.04947,-0.00301
2050,-0.05491,-0.12605,-0.90982,0.12875,-0.05073,0.13518
2051,0.00521,0.0623,-0.98473,-0.13074,-0.0107,-0.0006
2052,0.08574,0.06971,-1.12102,0.02105,0.05592,0.0067
2053,0.10928,-0.08664,-0.90802,0.08216,-0.00628,0.05504
2054,0.12919,0.10716,-1.02806,-0.19044,-0.01286,-0.10019
2055,0.11927,0.00887,-1.09795,0.1829,-0.07399,-0.00725
2056,0.03822,-0.12771,-0.92198,0.13,-0.10454,0.13803
2057,-0.00728,0.10754,-0.99927,-0.3067,0.06727,-0.04816
2058,-0.04801,0.07202,-1.11812,-0.07795,-0.05389,-0.13076
2059,-0.15021,0.05919,-0.99904,-0.12599,-0.01357,-0.11928
2060,-0.12614,0.08976,-1.03108,0.06811,-0.04548,-0.05373
2061,-0.16645,-0.18534,-0.93959,0.1663,-0.04261,0.20711
2062,-0.06052,0.04088,-0.96234,-0.11382,0.07661,-0.02712
2063,0.03953,0.10063,-1.0966,-0.08511,0.14478,-0.07246
2064,0.02777,-0.07706,-0.93244,-0.02974,0.0497,0.07264
2065,0.10491,0.07802,-1.0441,-0.0619,0.00548,0.01902
2066,0.10728,0.00675,-1.00225,0.21941,0.02114,0.03124
2067,0.09174,0.01391,-0.92759,-0.08545,0.05597,-0.01582
2068,0.08237,0.09335,-1.11798,-0.15529,0.02718,-0.06512
2069,0.01889,-0.07022,-0.94124,0.22795,-0.06475,0.00072
2070,-0.06915,-0.05305,-0.96428,0.00399,0.00434,0.08635
2071,-0.08608,0.12646,-1.10511,-0.02873,0.02746,-0.09319
2072,-0.11864,-0.05824,-0.94206,0.33283,0.03043,0.03819
2073,-0.16616,-0.08246,-0.90769,0.01925,0.02875,0.13469
2074,-0.09825,0.13321,-1.10508,-0.13711,0.06192,-0.13256
2075,-0.07959,-0.04511,-0.93942,0.10647,0.08299,0.05262
2076,-0.04483,-0.05137,-0.9704,0.03101,0.09315,0.14617
2077,0.03837,0.05177,-1.10645,0.01195,-0.03403,0.01362
2078,0.08204,0.02035,-0.89568,-0.11029,-0.00827,-0.10305
2079,0.09897,0.02765,-1.08258,-0.11841,0.06288,0.01386
2080,0.05137,0.02541,-0.90343,-0.08388,0.07418,-0.04805
2081,0.05539,0.08101,-1.18188,-0.16616,0.01683,-0.04445
2082,-0.02854,-0.05982,-0.88576,0.21303,-0.0501,0.04826
2083,-0.08067,0.13164,-1.0789,-0.07941,0.03286,-0.07121
2084,-0.11641,-0.05816,-0.91668,0.13102,0.06154,0.03905
2085,-0.10863,-0.00736,-1.00746,-0.03365,0.01565,0.00646
2086,-0.04775,0.08241,-1.09525,-0.00591,-0.00866,-0.10952
2087,-0.06895,-0.09668,-0.88996,-0.07368,0.00857,0.08876
2088,-0.00292,-0.0026,-1.07516,-0.0752,0.02636,0.0827
2089,0.04475,0.03266,-1.00237,0.10774,-0.04185,-0.04333
2090,0.06625,0.04747,-0.92485,0.07138,0.02229,-0.06952
2091,0.06795,-0.0394,-1.08173,0.04298,0.04271,0.07277
2092,0.05888,-0.05899,-0.90898,-0.01304,-0.04956,0.03947
2093,0.05756,0.10714,-1.04436,-0.11223,-0.06446,-0.05333
2094,0.01989,0.00666,-1.07069,0.10769,0.01303,-0.02199
2095,0.01989,0.00666,-1.07069,0.10769,0.01303,-0.02199
2096,-0.0561,0.11511,-1.09993,-0.27739,-0.0019,-0.07939
2097,-0.0561,0.11511,-1.09993,-0.27739,-0.0019,-0.07939
2098,-0.12504,-0.1172,-0.8422,-0.02559,0.07543,0.15715
2099,-0.05679,0.11177,-1.14851,-0.05864,-0.08181,-0.05339
2100,-0.0527,-0.02233,-0.94912,0.05574,-0.01854,-0.02297
2101,-0.01569,-0.03233,-0.9747,-0.02285,0.04494,0.08662
2102,0.00605,0.02939,-1.04855,0.08225,0.03757,-0.00196
2103,0.0595,0.01675,-0.91992,-0.11481,0.18839,-0.04614
2104,0.06238,0.0334,-1.11342,-0.11758,0.07012,0.02273
2105,0.04837,-0.04994,-0.94495,0.16031,-0.04641,0.0221
2106,0.06121,0.06483,-0.9904,-0.11595,-0.0091,-0.00869
2107,0.01993,0.02945,-1.09898,0.0203,-0.05172,-0.00547
2108,-0.00853,-0.08151,-0.90105,0.08868,-0.05458,0.05274
2109,-0.03987,0.06815,-1.03676,-0.18316,-0.06259,-0.03183
2110,-0.0668,0.04029,-1.02407,0.05993,0.08563,-0.08803
2111,-0.10954,-0.09277,-0.94696,0.06755,0.05099,0.11108
2112,-0.09295,0.0629,-1.0611,-0.04703,-0.01412,0.02158
2113,-0.03639,0.03599,-1.01319,0.07369,-0.08727,-0.0702
2114,-0.04413,-0.01166,-0.97065,-0.13705,-0.04787,0.08012
2115,0.06394,0.02471,-0.99141,0.02442,0.11282,-0.04903
2116,0.05148,0.0588,-1.00745,0.02471,-0.10135,0.02696
2117,0.06349,-0.05916,-1.04412,0.06854,-0.06914,0.01384
2118,0.06199,0.03388,-0.92654,-0.29043,0.03835,-0.00114
2119,0.01348,0.01398,-1.04167,-0.07383,0.06011,0.01394
2120,0.00809,-0.04322,-1.03301,0.07566,-0.05442,0.03548
2121,-0.03272,0.06336,-0.96049,-0.07979,-0.10285,-0.0585
2122,-0.06747,-0.01165,-1.02878,0.14691,0.00445,-0.02807
2123,-0.08248,-0.03812,-1.01102,-0.00316,-0.01593,0.11429
2124,-0.08815,0.09843,-0.90829,-0.00209,0.07339,-0.04966
2125,-0.02632,0.02739,-1.11143,0.02396,0.01568,-0.0458
2126,-0.09293,-0.01876,-0.8991,-0.21026,0.02051,0.09039
2127,-0.01066,0.01372,-1.04364,-0.07337,0.11448,-0.01867
2128,0.08013,0.08042,-1.12711,-0.22248,-0.07616,-0.07476
2129,0.13105,0.03558,-0.81471,0.03859,0.06402,-0.00123
2130,0.21603,-0.10991,-1.02209,-0.08072,0.0084,0.0411
2131,0.23541,0.17419,-1.19829,-0.35474,-0.04395,-0.01615
2132,0.20458,-0.00161,-0.85566,0.18085,-0.02115,-0.05062
2133,0.17986,-0.13078,-0.91929,0.03787,-0.07127,0.12767
2134,0.15766,0.16664,-1.26557,-0.24508,-0.14282,-0.06407
2135,0.08627,-0.01595,-0.92285,-0.00807,-0.06912,-0.03488
2136,-0.06099,-0.09785,-0.85635,0.02752,-0.00396,0.17194
2137,-0.10601,0.03551,-1.04006,-0.07558,-0.03856,0.011
2138,-0.09438,0.06401,-1.11779,-0.04067,-0.04786,0.00957
2139,-0.11505,0.01533,-0.97477,0.01719,-0.05307,0.0366
2140,-0.05981,0.03844,-0.86932,-0.02371,0.13823,-0.07792
2141,-0.01026,-0.01321,-1.0191,-0.11045,0.09787,-0.03825
2142,0.066,-0.03184,-1.11078,0.06754,-0.05882,0.03088
2143,0.18025,0.02959,-1.00383,-0.00912,0.02788,-0.00664
2144,0.22958,0.04068,-0.93049,0.00383,0.10516,0.0142
2145,0.2176,0.04115,-0.93927,-0.03375,0.12358,-0.01209
2146,0.21937,0.02422,-1.07257,-0.0291,-0.02888,-0.01113
2147,0.20185,-0.02009,-1.07403,-0.00524,-0.15559,0.04473
2148,0.02027,0.02733,-0.98904,0.00676,-0.01631,0.02854
2149,0.02546,0.03472,-0.97875,0.01331,-0.00946,0.01943
2150,0.0252,0.02302,-1.00034,0.00403,-0.01277,-0.02841
2151,0.01462,0.03124,-1.01008,0.0004,0.01114,-0.02865
2152,0.01709,-0.00755,-1.00002,0.00071,0.00434,0.02678
2153,-5e-05,0.00072,-1.00025,0.00235,-0.00502,0.04095
2154,0.00592,0.02067,-0.99293,0.00088,0.00359,0.02352
2155,-0.00243,0.0127,-0.99624,-0.00472,0.0101,0.01119
2156,-0.01797,0.00451,-0.99493,-0.00077,0.01507,0.02325
2157,-0.02795,0.01608,-0.99374,0.00087,0.02468,0.02268
2158,-0.03501,0.0178,-0.99864,-0.01882,0.03158,0.0156
2159,-0.02221,0.01634,-1.01777,-0.00653,0.02294,0.00535
2160,0.00624,0.00122,-1.02279,-0.01306,0.01304,0.02636
2161,0.02293,0.01801,-1.00438,0.00234,0.00546,0.02521
2162,0.02105,0.0224,-0.99723,-0.0035,0.00146,0.03455
2163,0.02237,0.02377,-1.00295,0.00119,-0.00199,0.0268
2164,0.01698,0.0124,-1.00319,-0.00069,0.0103,0.01538
2165,0.01646,0.01241,-1.00251,-0.00533,0.01057,0.00456
2166,0.01722,0.01564,-1.00104,-0.00109,0.00527,-0.00445
2167,0.01856,0.01801,-1.00008,-0.00207,0.00553,-0.00846
2168,0.02134,0.01104,-1.0025,-0.00528,0.00592,0.0007
2169,0.02224,0.01019,-1.00241,-0.00505,0.00821,0.00017
2170,0.02326,0.01681,-1.00054,-0.00696,0.00616,0.00107
2171,0.02284,0.01415,-1.00155,-0.00729,0.00939,0.00452
2172,0.02109,0.01306,-1.00264,-0.0073,0.00745,0.00549
