,times(seconds),acc_x,acc_y,acc_z,gyro_x,gyro_y,gyro_z
0,0.0,-0.01447,0.01511,-1.00127,-0.00725,0.01041,0.00791
1,0.019424809566691348,-0.01447,0.01511,-1.00127,-0.00725,0.01041,0.00791
2,0.038849619133382696,-0.01497,0.01508,-1.00279,-0.00594,0.00611,0.00623
3,0.058274428700074044,-0.01563,0.01385,-1.00246,-0.00706,0.00591,0.00654
4,0.07769923826676539,-0.01552,0.01455,-1.00362,-0.00435,0.0081,0.00567
5,0.09712404783345674,-0.01356,0.01764,-1.00327,-0.00685,0.00417,-0.00187
6,0.11654885740014809,-0.0156,0.00868,-1.0016,-0.00417,0.00941,0.02224
7,0.13597366696683943,-0.01604,0.01976,-1.00314,-0.00467,0.00482,0.00093
8,0.15539847653353078,-0.01414,0.01632,-1.00145,-0.00468,0.01158,0.00131
9,0.17482328610022213,-0.01573,0.01259,-1.00338,-0.00573,0.0063,0.0144
10,0.19424809566691348,-0.01547,0.0159,-1.00226,-0.00429,0.00692,0.00591
11,0.21367290523360483,-0.0118,0.01775,-1.00144,-0.00543,0.00644,0.00213
12,0.23309771480029617,-0.01389,0.01186,-1.0018,-0.00696,0.00661,0.00737
13,0.2525225243669875,-0.01448,0.01576,-1.00308,-0.00444,0.00547,0.00917
14,0.27194733393367887,-0.01136,0.01533,-1.00546,-0.00642,0.00611,0.00302
15,0.2913721435003702,-0.01296,0.01274,-1.00477,-0.00698,0.00843,0.0058
16,0.31079695306706157,-0.01411,0.01595,-1.00291,-0.00273,0.00674,0.01045
17,0.3302217626337529,-0.01355,0.0146,-1.00188,-0.00777,0.00618,0.00548
18,0.34964657220044426,-0.01436,0.0134,-1.00205,-0.00572,0.00679,0.006
19,0.3690713817671356,-0.01568,0.01469,-1.00244,-0.00586,0.00632,0.00833
20,0.38849619133382696,-0.01445,0.01529,-1.00376,-0.00828,0.00755,0.00616
21,0.4079210009005183,-0.01384,0.01332,-1.00238,-0.00493,0.00579,0.00575
22,0.42734581046720965,-0.01386,0.01649,-1.00172,-0.00631,0.00688,0.007
23,0.446770620033901,-0.0142,0.01354,-1.00306,-0.00554,0.00916,0.00679
24,0.46619542960059235,-0.01344,0.01481,-1.00513,-0.00623,0.00772,0.00326
25,0.4856202391672837,-0.0132,0.01605,-1.00259,-0.00734,0.00631,0.00613
26,0.505045048733975,-0.01474,0.01409,-1.00314,-0.00743,0.0075,0.00715
27,0.5244698583006664,-0.01358,0.01495,-1.00437,-0.00652,0.01475,0.00254
28,0.5438946678673577,-0.01637,0.01263,-1.00443,-0.00469,0.00271,0.01006
29,0.5633194774340491,-0.01092,0.01832,-1.00265,-0.00657,0.0091,0.00584
30,0.5827442870007404,-0.01608,0.01203,-1.00394,-0.00543,0.00568,0.00717
31,0.6021690965674318,-0.01387,0.01666,-1.00251,-0.00596,0.00777,0.01059
32,0.6215939061341231,-0.01222,0.01557,-1.00202,-0.00744,0.00767,0.00313
33,0.6410187157008145,-0.01605,0.01213,-1.00248,-0.00809,0.00657,0.01048
34,0.6604435252675058,-0.01397,0.01716,-1.00267,-0.00354,0.00692,0.00373
35,0.6798683348341972,-0.01509,0.01412,-1.00156,-0.00711,0.00837,0.00534
36,0.6992931444008885,-0.01327,0.0175,-1.00277,-0.00547,0.00489,0.00331
37,0.7187179539675799,-0.01327,0.0175,-1.00277,-0.00547,0.00489,0.00331
38,0.7381427635342712,-0.01499,0.01435,-1.00365,-0.0044,0.00555,0.00739
39,0.7575675731009626,-0.01475,0.01638,-1.00295,-0.00669,0.00757,0.00762
40,0.7769923826676539,-0.01393,0.01371,-1.00302,-0.00674,0.00352,0.00612
41,0.7964171922343453,-0.01311,0.01522,-1.00224,-0.00784,0.00841,0.00539
42,0.8158420018010366,-0.01372,0.01512,-1.00312,-0.00707,0.00586,0.00723
43,0.835266811367728,-0.01322,0.01433,-1.00304,-0.00706,0.00844,0.00608
44,0.8546916209344193,-0.0133,0.01613,-1.00407,-0.00734,0.00636,0.00619
45,0.8741164305011107,-0.01524,0.01486,-1.00474,-0.00562,0.00763,0.00668
46,0.893541240067802,-0.01614,0.01423,-1.00296,-0.00676,0.00751,0.00744
47,0.9129660496344933,-0.01605,0.01548,-1.00158,-0.00645,0.00583,0.0056
48,0.9323908592011847,-0.01435,0.01453,-1.0013,-0.00435,0.00614,0.00669
49,0.951815668767876,-0.0145,0.01469,-1.00205,-0.00734,0.00738,0.00592
50,0.9712404783345674,-0.01324,0.01401,-1.00424,-0.00862,0.0093,0.00739
51,0.9906652879012587,-0.01248,0.01524,-1.00364,-0.00603,0.00806,0.00613
52,1.01009009746795,-0.01163,0.0156,-1.0046,-0.00779,0.00776,0.00431
53,1.0295149070346414,-0.01302,0.01478,-1.00447,-0.00667,0.00636,0.0056
54,1.0489397166013328,-0.01341,0.01399,-1.00185,-0.00548,0.0081,0.00634
55,1.0683645261680241,-0.01408,0.01494,-1.00311,-0.00907,0.00806,0.00624
56,1.0877893357347155,-0.01489,0.0146,-1.00432,-0.00618,0.01128,0.00813
57,1.1072141453014068,-0.01568,0.01548,-1.00243,-0.00446,0.00682,0.00554
58,1.1266389548680982,-0.01523,0.01508,-1.00212,-0.00592,0.00817,0.00488
59,1.1460637644347895,-0.0155,0.01399,-1.00221,-0.00618,0.00716,0.00817
60,1.1654885740014809,-0.01632,0.01491,-1.00266,-0.00537,0.00753,0.00494
61,1.1849133835681722,-0.01518,0.0158,-1.00298,-0.00484,0.00781,0.00424
62,1.2043381931348636,-0.0142,0.01432,-1.00333,-0.00375,0.01043,0.00623
63,1.223763002701555,-0.01449,0.0148,-1.00224,-0.00585,0.00673,0.00321
64,1.2431878122682463,-0.01417,0.01428,-1.0024,-0.00575,0.0073,0.00793
65,1.2626126218349376,-0.01327,0.01309,-1.0027,-0.00783,0.00698,0.01062
66,1.282037431401629,-0.01276,0.0149,-1.00187,-0.00463,0.00576,0.00797
67,1.3014622409683203,-0.0136,0.01405,-1.00289,-0.00442,0.00567,0.0087
68,1.3208870505350117,-0.01287,0.01396,-1.00194,-0.00649,0.00678,0.00695
69,1.340311860101703,-0.01513,0.01454,-1.00046,-0.00686,0.00769,0.0054
70,1.3597366696683943,-0.01612,0.01442,-1.00322,-0.00489,0.00676,0.00656
71,1.3791614792350857,-0.01538,0.01431,-1.00336,-0.00757,0.00775,0.00746
72,1.398586288801777,-0.01504,0.0138,-1.00397,-0.0077,0.00803,0.00822
73,1.4180110983684684,-0.01484,0.01498,-1.00315,-0.00625,0.00806,0.00557
74,1.4374359079351597,-0.01467,0.01497,-1.0031,-0.00491,0.00855,0.00542
75,1.456860717501851,-0.01439,0.01509,-1.00356,-0.00604,0.0071,0.00502
76,1.4762855270685424,-0.01389,0.01432,-1.00321,-0.00577,0.00752,0.00631
77,1.4957103366352338,-0.01264,0.01471,-1.00451,-0.00435,0.00776,0.00657
78,1.5151351462019251,-0.01291,0.01419,-1.00382,-0.00774,0.00647,0.00923
79,1.5345599557686165,-0.01279,0.01552,-1.00282,-0.0048,0.00778,0.00596
80,1.5539847653353078,-0.01272,0.01428,-1.00132,-0.00599,0.00905,0.00817
81,1.5734095749019992,-0.01325,0.01402,-0.99986,-0.00741,0.0062,0.00439
82,1.5928343844686905,-0.01405,0.01563,-1.00219,-0.00557,0.00854,0.00661
83,1.6122591940353819,-0.01688,0.01367,-1.00277,-0.00677,0.00789,0.00693
84,1.6316840036020732,-0.01695,0.01474,-1.00431,-0.00439,0.00731,0.00399
85,1.6511088131687646,-0.01701,0.01526,-1.00425,-0.00615,0.00871,0.00596
86,1.670533622735456,-0.01544,0.01393,-1.00299,-0.00497,0.00691,0.00692
87,1.6899584323021473,-0.01379,0.01499,-1.00243,-0.0075,0.00882,0.00544
88,1.7093832418688386,-0.01307,0.01572,-1.00468,-0.00641,0.00686,0.00606
89,1.72880805143553,-0.01338,0.01509,-1.00475,-0.00499,0.00491,0.0059
90,1.7482328610022213,-0.01227,0.01516,-1.00246,-0.00667,0.00688,0.00675
91,1.7676576705689127,-0.01349,0.01406,-1.00174,-0.00835,0.00767,0.0081
92,1.787082480135604,-0.01472,0.01507,-1.00141,-0.00412,0.00858,0.00809
93,1.8065072897022953,-0.01528,0.0148,-1.00209,-0.00838,0.00878,0.00658
94,1.8259320992689867,-0.01512,0.01546,-1.00372,-0.00651,0.00595,0.00632
95,1.845356908835678,-0.01571,0.01486,-1.00333,-0.00519,0.00874,0.00625
96,1.8647817184023694,-0.0156,0.01394,-1.00322,-0.00439,0.00735,0.0097
97,1.8842065279690607,-0.01511,0.01423,-1.00508,-0.00465,0.00432,0.00614
98,1.903631337535752,-0.01445,0.01422,-1.00516,-0.007,0.0064,0.00828
99,1.9230561471024434,-0.01423,0.01455,-1.00174,-0.00921,0.00684,0.00841
100,1.9424809566691348,-0.01465,0.01577,-1.00178,-0.00473,0.00831,0.00393
101,1.9619057662358261,-0.01432,0.01459,-1.0039,-0.00563,0.00896,0.00718
102,1.9813305758025175,-0.01391,0.01563,-1.00256,-0.00418,0.00601,0.0061
103,2.000755385369209,-0.01491,0.01475,-1.00261,-0.00635,0.0087,0.00693
104,2.0201801949359,-0.01366,0.01383,-1.00467,-0.00675,0.00597,0.00681
105,2.0396050045025915,-0.01342,0.01535,-1.00349,-0.00696,0.00779,0.00467
106,2.059029814069283,-0.0148,0.01601,-1.00366,-0.0073,0.00745,0.00671
107,2.078454623635974,-0.01489,0.01516,-1.00386,-0.00465,0.00525,0.00812
108,2.0978794332026656,-0.01466,0.01532,-1.00214,-0.00344,0.00486,0.00676
109,2.117304242769357,-0.01548,0.01393,-0.99998,-0.00688,0.00592,0.00747
110,2.1367290523360483,-0.01522,0.01571,-1.00373,-0.00484,0.00749,0.0081
111,2.1561538619027396,-0.01527,0.01489,-1.0021,-0.00557,0.00718,0.00709
112,2.175578671469431,-0.01379,0.0149,-1.00278,-0.00492,0.00739,0.00925
113,2.1950034810361223,-0.01314,0.01556,-1.00224,-0.00554,0.00876,0.00504
114,2.2144282906028137,-0.01365,0.01549,-1.00284,-0.00714,0.00733,0.00693
115,2.233853100169505,-0.01507,0.00984,-1.00541,-0.00433,0.00982,0.02318
116,2.2532779097361963,-0.01327,0.02063,-1.00428,-0.01022,0.00346,-0.00992
117,2.2727027193028877,-0.01246,0.01431,-1.00145,-0.00321,0.00817,0.0097
118,2.292127528869579,-0.01089,0.01386,-0.99767,-0.00104,0.01585,0.00625
119,2.3115523384362704,0.04612,0.0123,-0.98398,0.01045,0.04778,0.00612
120,2.3309771480029617,0.12472,-0.00096,-1.01146,-0.01158,0.06437,0.03937
121,2.350401957569653,0.20305,0.00137,-1.02494,-0.05344,0.05259,0.05959
122,2.3698267671363444,0.25086,0.01905,-0.99972,-0.05872,0.05444,0.09941
123,2.389251576703036,0.27042,0.05435,-1.03238,0.06939,-0.08963,0.00438
124,2.408676386269727,0.28254,0.06602,-0.94829,0.0475,0.05193,-0.02329
125,2.4281011958364185,0.3419,0.09057,-0.98667,-0.02648,0.00111,-0.10669
126,2.44752600540311,0.21778,-0.07177,-1.08946,-0.11937,-0.03453,0.06537
127,2.466950814969801,0.18364,-0.02545,-0.98461,0.08618,-0.11067,-0.07603
128,2.4863756245364925,0.1364,0.06627,-0.94789,0.02084,-0.07734,-0.11364
129,2.505800434103184,0.05517,-0.04134,-1.06321,-0.19305,0.01228,0.11517
130,2.525225243669875,0.04461,0.00246,-1.01303,0.05835,-0.11796,-0.03552
131,2.5446500532365666,0.05182,0.06876,-0.93226,-0.00479,0.10431,-0.08846
132,2.564074862803258,0.04347,-0.01335,-1.05958,-0.12337,0.02226,0.07398
133,2.5834996723699493,0.08968,-0.01672,-1.01322,0.00482,-0.0206,-0.03218
134,2.6029244819366406,0.17656,0.02453,-1.06704,0.01754,0.05445,0.09338
135,2.622349291503332,0.201,0.00946,-0.95604,0.03494,0.07298,0.02137
136,2.6417741010700233,0.26308,0.07779,-0.97205,-0.00381,0.08279,0.01886
137,2.6611989106367147,0.24085,-0.00772,-1.05491,-0.05864,0.02119,-0.01748
138,2.680623720203406,0.24788,0.03231,-0.97314,0.1662,-0.07337,-0.01422
139,2.7000485297700973,0.19606,0.00923,-1.02931,0.02043,0.05008,-0.0194
140,2.7194733393367887,0.16327,0.00978,-1.02448,-0.04384,0.058,-0.06505
141,2.73889814890348,0.14663,-0.01498,-0.93816,0.2954,-0.02117,0.02065
142,2.7583229584701714,0.10879,-0.03316,-1.00851,0.02373,0.04955,0.0532
143,2.7777477680368627,0.13961,0.05192,-0.96921,-0.00742,0.20445,-0.05134
144,2.797172577603554,0.10138,0.02353,-1.08971,0.30969,-0.17294,0.00826
145,2.8165973871702454,0.09254,0.01455,-0.99545,-0.00536,0.1374,0.06229
146,2.836022196736937,0.10816,0.00161,-0.98944,-0.09707,-0.02943,0.03783
147,2.855447006303628,0.11177,0.03367,-1.00808,-0.28519,0.04887,-0.01641
148,2.8748718158703195,0.14731,0.04646,-1.02292,0.09843,-0.11195,-0.02407
149,2.894296625437011,0.17468,0.03281,-0.99327,0.20215,0.0374,0.00582
150,2.913721435003702,0.20578,0.0044,-0.9737,0.04386,0.15758,-0.00942
151,2.9331462445703935,0.18122,-0.01287,-0.99218,-0.08025,0.15505,0.00882
152,2.952571054137085,0.18148,-0.02727,-1.01475,-0.08196,0.00729,0.03549
153,2.971995863703776,0.14984,-0.00824,-1.02955,-0.22844,-0.05729,0.00349
154,2.9914206732704676,0.12237,0.01022,-1.05234,-0.25929,-0.12869,0.02602
155,3.010845482837159,0.10216,0.00628,-0.9977,-0.44426,-0.03286,-0.00349
156,3.0302702924038503,0.08466,0.00728,-1.02358,-0.38025,-0.09106,0.02957
157,3.0496951019705416,0.04753,0.02451,-1.03293,-0.41167,0.0382,0.00798
158,3.069119911537233,0.04838,0.03464,-1.00198,-0.32003,-0.03668,-0.00177
159,3.0885447211039243,-0.02153,-0.00991,-1.04472,-0.17014,-0.15282,0.08703
160,3.1079695306706157,-0.07751,-0.00894,-1.03019,-0.21713,-0.1351,0.05802
161,3.127394340237307,-0.1731,0.01374,-1.02864,-0.30859,-0.04318,0.05528
162,3.1468191498039984,-0.28167,0.01872,-1.02783,-0.13212,-0.17998,0.00288
163,3.1662439593706897,-0.31677,0.02555,-0.94501,0.02353,-0.07274,-0.03437
164,3.185668768937381,-0.34586,0.0167,-1.01,0.14073,-0.00368,-0.03762
165,3.2050935785040724,-0.32809,-0.01466,-0.95523,-0.13438,0.15524,-0.05049
166,3.2245183880707637,-0.33221,-0.06923,-1.04691,-0.02319,-0.11843,0.04895
167,3.243943197637455,-0.27526,-0.07059,-1.0091,-0.09496,-0.02871,0.07038
168,3.2633680072041464,-0.2282,0.0051,-0.94572,-0.0207,0.05884,-0.00292
169,3.282792816770838,-0.15748,0.03259,-1.03042,-0.12862,0.25126,0.01138
170,3.302217626337529,-0.09325,0.00382,-1.06074,0.01377,-0.07649,0.08883
171,3.3216424359042205,-0.06404,0.06471,-0.91659,0.10537,-0.06402,0.01452
172,3.341067245470912,-0.06953,0.06942,-1.0718,-0.06295,0.14545,-0.06419
173,3.360492055037603,-0.04675,0.01439,-0.99257,-0.14555,-0.06329,0.0472
174,3.3799168646042945,-0.11241,0.00803,-0.9654,-0.04483,0.02828,0.00718
175,3.399341674170986,-0.10737,0.01269,-1.08823,0.12943,-0.19855,-0.00768
176,3.418766483737677,-0.16507,0.01631,-0.93183,0.04508,-0.0395,-0.03615
177,3.4381912933043686,-0.20623,-0.00549,-1.05931,0.11362,-0.05398,0.05226
178,3.45761610287106,-0.22828,0.01788,-0.92355,0.03414,0.0237,-0.03977
179,3.4770409124377513,-0.23816,0.0044,-1.07815,0.1429,-0.04179,0.03399
180,3.4964657220044426,-0.22452,0.02872,-0.91509,0.0131,-0.00288,-0.00047
181,3.515890531571134,-0.16568,-0.00125,-1.03272,-0.10035,0.03186,0.00709
182,3.5353153411378253,-0.1583,0.00631,-1.05954,0.01799,-0.0855,-0.02156
183,3.5547401507045167,-0.07806,-0.01889,-0.90911,0.01443,0.10218,0.02826
184,3.574164960271208,-0.05543,-0.00258,-1.0633,-0.00019,-0.03469,0.05537
185,3.5935897698378994,-0.01968,0.04466,-0.97919,-0.00873,0.06472,-0.03424
186,3.6130145794045907,0.01651,-0.01136,-1.01951,-0.10532,0.03249,0.04626
187,3.632439388971282,-0.03869,0.02429,-1.04492,0.04792,-0.05858,-0.01975
188,3.6518641985379734,-0.048,0.03439,-0.92647,0.06802,0.02277,-0.03929
189,3.6712890081046647,-0.09972,0.02207,-1.0767,-0.10354,0.01934,0.01463
190,3.690713817671356,-0.18286,0.01622,-1.03918,-0.0338,-0.06008,-0.05412
191,3.7101386272380474,-0.19108,-0.02841,-0.89234,0.07376,0.02332,0.0248
192,3.729563436804739,-0.21043,0.00291,-1.07246,-0.18204,0.00744,0.01407
193,3.74898824637143,-0.22307,-0.02171,-1.02936,-0.01288,-0.0791,0.01158
194,3.7684130559381215,-0.19034,0.00796,-0.96406,0.05462,-0.01127,0.04096
195,3.787837865504813,-0.09629,0.06229,-0.94494,-0.03847,0.09159,-0.01507
196,3.807262675071504,-0.03314,0.03074,-1.03552,-0.03034,0.06742,0.00409
197,3.8266874846381955,-0.04192,-0.08183,-1.06921,-0.09155,-0.00993,0.14432
198,3.846112294204887,0.00507,0.05413,-1.01189,0.03905,-0.06932,-0.02597
199,3.865537103771578,-0.00161,0.08467,-0.9652,0.05305,-0.006,-0.00743
200,3.8849619133382696,-0.02335,0.00194,-0.95507,0.00965,0.04263,0.01353
201,3.904386722904961,-0.02769,0.0084,-1.02604,-0.05689,0.03385,-0.05331
202,3.9238115324716523,-0.07727,-0.05488,-1.04321,-0.0579,-0.01362,0.04271
203,3.9432363420383436,-0.1326,-0.01785,-1.00489,-0.05965,0.00019,0.02447
204,3.962661151605035,-0.09904,0.0983,-0.97489,0.03406,0.00032,-0.12278
205,3.9820859611717263,-0.1292,0.05375,-0.99226,0.04005,-0.01808,-0.02409
206,4.001510770738418,-0.07042,-0.01844,-1.00516,-0.00643,0.02961,-0.0283
207,4.020935580305109,-0.08194,-0.06039,-1.01168,-0.00966,0.03664,0.08656
208,4.0403603898718,-0.05048,-0.00744,-1.00064,-0.00407,0.03492,0.07788
209,4.059785199438492,-0.05048,-0.00744,-1.00064,-0.00407,0.03492,0.07788
210,4.079210009005183,-0.02124,0.01192,-1.0285,-0.0525,-0.00307,0.04079
211,4.098634818571874,-0.01185,0.00049,-1.00439,-0.0446,-0.00025,0.01743
212,4.118059628138566,-0.01185,0.00049,-1.00439,-0.0446,-0.00025,0.01743
213,4.1374844377052575,0.01737,0.05046,-1.00931,0.00318,-0.03243,-0.03394
214,4.156909247271948,-0.03114,0.03946,-1.00529,0.04654,-0.02691,-0.04104
215,4.176334056838639,-0.02673,0.01609,-0.99098,0.03641,0.01235,-0.05079
216,4.195758866405331,-0.01316,0.00446,-1.00271,0.01297,0.01325,-0.0555
217,4.215183675972023,-0.02634,-0.01904,-1.00354,0.00296,0.01327,-0.01437
218,4.234608485538714,-0.02765,-0.02812,-0.9969,-0.00456,0.02065,0.02812
219,4.254033295105405,-0.01658,-0.00316,-1.00342,-0.0114,0.01572,0.01536
220,4.2734581046720965,-0.01602,0.01529,-1.0037,-0.01525,0.01872,0.01356
221,4.292882914238788,-0.01554,0.02044,-1.00338,-0.01766,0.02294,0.00786
222,4.312307723805479,-0.03487,-0.00714,-1.01304,-0.03072,0.0157,0.04142
223,4.33173253337217,-0.04894,-0.01197,-1.0173,-0.04606,0.00506,0.05632
224,4.351157342938862,-0.03934,0.00412,-0.99705,-0.02932,6e-05,0.06463
225,4.370582152505554,-0.0278,0.01697,-0.99221,-0.01935,0.00825,0.05046
226,4.390006962072245,-0.01696,0.03145,-1.00272,-0.00576,0.00042,0.01446
227,4.4094317716389355,-0.02479,0.05811,-1.00444,0.01372,0.00205,-0.0318
228,4.428856581205627,-0.03713,0.04163,-1.00066,0.02459,-0.00329,-0.0228
229,4.448281390772319,-0.03048,0.00914,-1.00054,0.01977,-0.00579,-0.01991
230,4.46770620033901,-0.02285,-0.00738,-0.99922,0.01174,-0.00329,-0.02218
231,4.487131009905701,-0.02555,-0.01249,-1.00198,0.00848,0.00441,-0.01155
232,4.506555819472393,-0.0274,-0.00433,-1.00305,0.00193,0.00638,0.0062
233,4.5259806290390845,-0.01951,0.01581,-0.99634,0.00061,0.00963,-0.00691
234,4.545405438605775,-0.01259,0.01232,-0.99883,-0.00255,0.00481,-0.01889
235,4.564830248172466,-0.00821,0.00779,-1.0027,-0.00523,0.00599,-0.02749
236,4.584255057739158,-0.01755,0.00458,-1.00117,-0.00818,0.01265,-0.00705
237,4.60367986730585,-0.02396,0.00797,-1.00157,-0.01095,0.01594,0.01195
238,4.623104676872541,-0.02197,0.01028,-1.0028,-0.01171,0.01533,0.01419
239,4.642529486439232,-0.02013,0.00797,-1.0042,-0.01651,0.01436,0.00758
240,4.6619542960059235,-0.01969,0.01036,-1.00073,-0.01541,0.01651,0.00313
241,4.681379105572615,-0.01993,0.01219,-1.00151,-0.01348,0.01524,0.00979
242,4.700803915139306,-0.01917,0.01165,-1.00046,-0.00991,0.01255,0.0094
243,4.720228724705997,-0.02073,0.00928,-1.00026,-0.00689,0.01826,0.01188
244,4.739653534272689,-0.02441,0.00918,-1.00459,-0.01281,0.01118,0.01236
245,4.759078343839381,-0.04257,-0.00114,-1.00254,-0.00781,0.01116,0.02961
246,4.778503153406072,-0.04539,-0.00393,-1.00299,-0.00545,0.00826,0.04287
247,4.7979279629727625,-0.04499,-0.00096,-1.00145,-0.00509,0.0096,0.0485
248,4.817352772539454,-0.04171,0.01054,-1.00341,-0.00345,0.01067,0.05262
249,4.836777582106146,-0.03799,0.01375,-1.00136,-0.00189,0.00724,0.04797
250,4.856202391672837,-0.03482,0.01571,-1.00083,-0.00319,0.00897,0.04379
251,4.875627201239528,-0.02784,0.02292,-1.00098,-0.00198,0.00925,0.03236
252,4.89505201080622,-0.01944,0.03269,-1.00293,-0.00166,0.00559,0.01036
253,4.9144768203729114,-0.01335,0.02785,-1.00121,-0.00539,0.0071,-0.00428
254,4.933901629939602,-0.01296,0.00406,-1.00309,-0.0085,0.00655,0.00323
255,4.953326439506293,-0.01131,0.00122,-1.00493,-0.0065,0.00484,0.0121
256,4.972751249072985,-0.00722,0.01612,-1.00363,-0.00856,0.00577,0.00473
257,4.992176058639677,-0.00668,0.0126,-1.0036,-0.00755,0.00562,0.00344
258,5.011600868206368,-0.00809,0.00396,-1.00275,-0.00928,0.00464,0.00956
259,5.031025677773059,-0.00593,0.01158,-0.99857,-0.00933,0.00728,0.00953
260,5.05045048733975,-0.00479,0.01434,-1.00137,-0.00468,0.00657,0.0033
261,5.069875296906442,-0.00456,0.00865,-1.00408,-0.00733,0.00763,0.00831
262,5.089300106473133,-0.00616,0.01013,-1.00204,-0.0077,0.00495,0.0093
263,5.108724916039824,-0.00424,0.01202,-1.00054,-0.00329,0.00606,0.00769
264,5.128149725606516,-0.0019,0.01199,-1.00417,-0.00752,0.00434,0.0045
265,5.147574535173208,-0.03874,0.04252,-1.00526,-0.00994,-0.01518,-0.0219
266,5.1669993447398985,-0.08376,0.17089,-1.02041,-0.05162,-0.01571,0.05337
267,5.186424154306589,-0.07804,0.21968,-1.02506,0.00969,0.00569,0.07379
268,5.205848963873281,-0.03077,0.28261,-1.00145,-0.11627,0.00994,0.03942
269,5.225273773439973,-0.03122,0.34994,-0.93005,-0.09843,0.04753,-0.1041
270,5.244698583006664,-0.04608,0.275,-1.07085,-0.10958,-0.08288,-0.00951
271,5.264123392573355,-0.01752,0.24361,-1.03417,-0.03185,-0.02574,-0.03376
272,5.283548202140047,0.03047,0.24174,-0.8748,-0.02659,0.07185,-0.13726
273,5.302973011706738,0.03236,0.137,-1.06818,-0.01617,0.02901,-0.01939
274,5.322397821273429,-0.00306,0.02952,-1.06886,-0.00427,-0.05169,0.06327
275,5.34182263084012,0.02111,0.15312,-0.93193,-0.10223,0.06448,-0.03514
276,5.361247440406812,0.06805,0.13111,-1.01517,0.12703,0.00148,0.00594
277,5.380672249973504,0.04131,0.09919,-1.03022,-0.10645,-0.00559,0.04522
278,5.400097059540195,0.03632,0.2414,-0.98478,-0.09863,0.04493,-0.03268
279,5.419521869106886,-0.00633,0.1102,-1.01772,0.15715,0.00273,0.07192
280,5.438946678673577,0.00476,0.2172,-0.98392,0.07038,-0.10059,0.02669
281,5.458371488240269,-0.02575,0.26592,-1.03672,-0.0887,-0.00171,-0.02015
282,5.47779629780696,-0.0333,0.21369,-0.94876,0.02922,0.08643,-0.06549
283,5.497221107373651,-0.03802,0.1471,-1.01873,-0.23344,0.02712,0.09539
284,5.516645916940343,-0.03679,0.2158,-0.99611,-0.11811,0.0467,-0.06443
285,5.536070726507035,-0.01993,0.12693,-1.02803,0.02308,0.00153,0.08728
286,5.5554955360737255,0.00343,0.20674,-0.99174,0.13554,0.02897,-0.01905
287,5.574920345640416,0.0235,0.19277,-0.99892,0.14396,0.04925,-0.03355
288,5.594345155207108,0.00159,0.10214,-0.98274,-0.13959,0.1255,0.08553
289,5.6137699647738,0.02643,0.1804,-1.04772,-0.13335,-0.08215,0.00753
290,5.633194774340491,-0.00295,0.19404,-0.99755,-0.05706,-0.02786,-0.06943
291,5.652619583907182,0.01309,0.16665,-0.96464,0.24797,-0.0953,0.0229
292,5.672044393473874,-0.01373,0.14367,-1.00404,0.06334,0.12587,0.0221
293,5.691469203040565,-0.0172,0.13359,-1.01718,-0.18131,0.04684,0.07008
294,5.710894012607256,-0.01368,0.15565,-1.01622,-0.15864,-0.05711,-0.01162
295,5.730318822173947,-0.02374,0.18373,-1.01152,0.11413,-0.06428,-0.06476
296,5.749743631740639,-0.01972,0.18615,-0.97703,0.11687,-0.15069,-0.01721
297,5.769168441307331,-0.02179,0.22912,-0.94601,0.05688,0.00839,-0.02535
298,5.788593250874022,-0.03982,0.14935,-0.90491,0.38193,0.29894,0.03709
299,5.808018060440713,-0.01835,0.20028,-0.98682,0.31202,0.11984,-0.03098
300,5.827442870007404,-0.04169,0.12799,-1.04162,0.46712,0.02166,0.14803
301,5.846867679574096,0.00168,0.16474,-0.90499,0.4361,0.14431,0.05203
302,5.866292489140787,-0.011,0.16111,-0.95731,0.58241,0.08319,0.05022
303,5.885717298707478,0.00907,0.15341,-0.96228,0.52828,0.10066,0.01149
304,5.90514210827417,0.02154,0.13958,-1.01931,0.29557,-0.12025,-0.02036
305,5.9245669178408615,0.02329,0.12831,-0.98152,0.22572,-0.29055,-0.06459
306,5.943991727407552,-0.00575,0.0878,-0.95143,0.10315,-0.19974,-0.05308
307,5.963416536974243,0.0041,-0.02831,-1.00456,0.16532,-0.17716,-0.00977
308,5.982841346540935,-0.01287,-0.12885,-0.97453,0.02178,-0.11821,0.01388
309,6.002266156107627,-0.0119,-0.18715,-0.96438,0.1297,0.05591,-0.12371
310,6.021690965674318,-0.04837,-0.26942,-0.96063,0.00295,0.34603,-0.08812
311,6.041115775241009,-0.0483,-0.36238,-1.04014,0.04685,0.07897,0.00838
312,6.0605405848077005,-0.03321,-0.29793,-1.03506,0.07348,-0.22859,0.07408
313,6.079965394374392,-0.05102,-0.26091,-0.9717,0.089,0.08387,-0.02145
314,6.099390203941083,-0.02617,-0.24565,-1.03074,-0.10805,0.20331,0.12157
315,6.118815013507774,0.02186,-0.11856,-1.0133,-0.04235,-0.20501,0.00165
316,6.138239823074466,0.01152,-0.0883,-0.95161,0.20222,-0.06805,-0.00054
317,6.157664632641158,0.01646,-0.0745,-1.03305,-0.15459,0.1448,0.03419
318,6.177089442207849,0.0384,-0.04457,-1.07425,-0.078,-0.15848,-0.01987
319,6.1965142517745395,0.0226,-0.0726,-0.92494,0.19208,-0.04984,0.00485
320,6.215939061341231,0.01513,-0.13361,-1.06072,-0.18267,-0.01596,0.02506
321,6.235363870907923,0.01634,-0.12806,-0.97736,-0.04697,-0.03369,-0.04896
322,6.254788680474614,-0.04672,-0.23148,-1.05382,0.04341,0.06877,0.07802
323,6.274213490041305,0.00155,-0.13748,-0.91734,0.17231,0.01527,-0.05761
324,6.293638299607997,-0.04233,-0.22552,-1.05458,0.02879,0.09133,0.01624
325,6.3130631091746885,-0.03094,-0.15954,-0.97796,0.18732,-0.06488,0.00016
326,6.332487918741379,-0.03046,-0.19416,-0.994,-0.00941,4e-05,0.03497
327,6.35191272830807,0.01198,-0.06448,-0.97604,0.05566,0.14878,-0.03931
328,6.371337537874762,-0.00214,-0.05527,-1.02988,0.02811,0.05003,0.09831
329,6.390762347441454,0.0127,-0.01617,-1.02888,0.06899,0.04888,0.01347
330,6.410187157008145,0.0108,-0.0454,-1.08026,0.10092,-0.01147,-0.01741
331,6.429611966574836,0.01304,-0.12169,-0.90035,-0.13358,0.10999,0.01378
332,6.4490367761415275,-0.03326,-0.14063,-1.10843,-0.06874,0.00913,0.07232
333,6.468461585708219,-0.00665,-0.13472,-0.97091,0.11445,-0.01962,-0.0263
334,6.48788639527491,-0.00912,-0.16781,-0.95987,-0.05807,0.05798,0.01469
335,6.507311204841601,-0.06521,-0.14246,-1.08883,-0.02637,-0.12689,0.0354
336,6.526736014408293,-0.04798,-0.16699,-0.96096,0.12534,0.00905,0.00242
337,6.546160823974985,0.00348,-0.09898,-0.92162,0.01158,0.14058,-0.01168
338,6.565585633541676,-0.00983,-0.00302,-1.09138,-0.12086,-0.12687,-0.055
339,6.5850104431083665,-0.05141,-0.1338,-1.05769,0.02694,-0.00393,0.0529
340,6.604435252675058,0.03477,-0.08999,-0.90216,0.13501,-0.00777,0.05534
341,6.62386006224175,0.032,0.02284,-0.9963,-0.05526,0.08915,-0.08216
342,6.643284871808441,0.03788,0.0133,-0.98494,-0.08614,0.01689,-0.10548
343,6.662709681375132,-0.06056,-0.20241,-1.11858,-0.03445,-0.03353,0.21676
344,6.682134490941824,0.01504,-0.0815,-0.95145,0.0183,0.00478,0.09223
345,6.7015593005085154,0.06833,0.04388,-0.97835,0.04134,0.01204,-0.08354
346,6.720984110075206,0.01447,-0.0079,-1.01762,0.01237,0.01724,-0.03973
347,6.740408919641897,0.00811,-0.03924,-0.96791,-0.09673,0.04622,-0.04049
348,6.759833729208589,-0.05764,-0.12544,-1.06373,-0.04745,-0.01342,0.0729
349,6.779258538775281,-0.06895,-0.14639,-1.01651,-0.02187,-0.03631,0.08497
350,6.798683348341972,-0.0205,-0.06479,-0.96195,0.02307,-0.0079,0.01838
351,6.818108157908663,-0.01934,-0.0069,-0.99562,-0.0028,0.03273,-0.02208
352,6.837532967475354,-0.00962,-0.00758,-1.00022,0.01883,0.02112,-0.01559
353,6.856957777042046,0.00113,0.00468,-1.00629,-0.01559,0.02759,-0.03049
354,6.876382586608737,-0.00517,0.02562,-0.99307,-0.08375,0.03606,-0.01683
355,6.895807396175428,-0.03305,-0.00983,-1.01605,-0.03075,0.01498,0.06147
356,6.91523220574212,-0.04843,-0.11097,-1.03084,0.00874,-0.01271,0.08684
357,6.934657015308812,-0.02584,-0.07242,-1.00252,-0.03856,0.02054,0.09017
358,6.9540818248755025,-0.01856,-0.07557,-0.97975,0.02692,0.02298,0.14036
359,6.973506634442193,-0.01376,-0.0561,-0.99975,-0.01452,-0.00695,0.14773
360,6.992931444008885,0.00234,-0.02912,-1.01159,0.01387,-0.00943,0.13611
361,7.012356253575577,0.01027,-0.05691,-0.98934,0.02623,0.03283,0.12417
362,7.031781063142268,0.02136,-0.04411,-1.00584,0.00075,0.02327,0.08454
363,7.051205872708959,0.02598,-0.04793,-1.00505,0.007,0.00153,0.04335
364,7.070630682275651,0.00922,-0.05798,-0.99956,-0.00354,0.01386,0.03807
365,7.090055491842342,0.01403,-0.05101,-1.00127,-0.00139,0.01074,-0.00112
366,7.109480301409033,0.006,-0.05231,-1.00415,-0.00491,0.00252,-0.01095
367,7.128905110975724,0.00302,-0.03782,-1.00399,-0.01752,0.00297,-0.00253
368,7.148329920542416,0.00026,0.00959,-1.00228,-0.01181,0.0104,0.00526
369,7.167754730109108,-0.00192,0.02636,-1.00031,-0.00747,0.00894,0.01422
370,7.187179539675799,0.0014,0.00154,-1.00319,-0.00825,0.00481,0.00587
371,7.20660434924249,0.00632,-0.005,-1.00493,-0.01227,0.00431,0.00245
372,7.226029158809181,0.00305,0.0104,-1.0042,-0.0106,0.00261,0.00369
373,7.245453968375873,0.00058,0.00893,-1.00422,-0.00929,0.00773,0.00717
374,7.264878777942564,-0.0021,0.00162,-1.00367,-0.01174,0.00187,0.00856
375,7.284303587509255,-0.00463,0.00553,-1.00436,-0.01207,0.00937,0.01846
376,7.303728397075947,-0.00609,0.0116,-1.00367,-0.00775,0.00729,0.01008
377,7.323153206642639,-0.00488,0.00572,-1.00263,-0.01233,0.01302,0.00878
378,7.3425780162093295,-0.00176,0.00255,-1.0032,-0.01054,0.009,0.00355
379,7.36200282577602,-0.00411,0.00876,-1.00416,-0.00883,0.00903,0.002
380,7.381427635342712,-0.0107,0.01038,-1.00428,-0.00817,0.00922,0.00052
381,7.400852444909404,-0.018,0.00776,-1.00339,-0.00908,0.01137,-0.00111
382,7.420277254476095,-0.02333,0.00345,-1.00331,-0.00812,0.01125,0.00435
383,7.439702064042786,-0.02401,0.00148,-1.00289,-0.00385,0.00853,0.01346
384,7.459126873609478,-0.02425,0.00448,-1.00245,-0.01288,0.01069,0.01137
385,7.478551683176169,-0.0304,0.00178,-1.0031,-0.01164,0.00816,0.0184
386,7.49797649274286,-0.03494,0.00304,-1.00153,-0.00537,0.00441,0.01909
387,7.517401302309551,-0.0391,0.01827,-1.00262,-0.00985,0.00441,0.00529
388,7.536826111876243,-0.04473,0.01713,-1.00148,-0.00706,0.00692,-0.00033
389,7.556250921442935,-0.05071,0.00229,-1.00232,-0.00804,0.00453,0.00747
390,7.575675731009626,-0.04808,0.00317,-1.00277,-0.00243,0.00892,0.01056
391,7.595100540576317,-0.04808,0.00317,-1.00277,-0.00243,0.00892,0.01056
392,7.614525350143008,-0.03002,0.0036,-1.00219,-0.00354,0.00973,0.01235
393,7.6339501597097,-0.02179,-0.00476,-1.00319,-0.00108,0.0115,0.02049
394,7.653374969276391,-0.01063,0.01132,-1.00547,-0.00236,0.00501,0.01162
395,7.672799778843082,-0.00355,0.02036,-1.00427,-0.00371,0.00874,-0.00147
396,7.692224588409774,-0.00368,0.00879,-1.00318,-0.00507,0.00335,0.00141
397,7.7116493979764655,-0.00478,-0.00291,-1.00409,-0.00625,0.00441,0.00852
398,7.731074207543156,-0.00429,0.00811,-1.00415,-0.0056,0.00355,0.00728
399,7.750499017109847,-0.0051,0.00371,-1.00499,-0.00568,0.00696,0.00586
400,7.769923826676539,-0.00565,0.00447,-1.0017,-0.00446,0.0079,0.00747
401,7.789348636243231,-0.0072,0.00905,-1.00035,-0.00552,0.00402,0.00482
402,7.808773445809922,-0.00604,0.00524,-1.00139,-0.0035,0.00841,0.00607
403,7.828198255376613,-0.0061,0.00517,-1.00325,-0.0045,0.00592,0.00733
404,7.8476230649433045,-0.00793,0.00644,-1.00286,-0.0068,0.00456,0.00626
405,7.867047874509996,-0.00659,0.00591,-1.00527,-0.00452,0.00714,0.00673
406,7.886472684076687,-0.0156,0.0215,-1.01023,-0.00784,-0.01564,-0.01876
407,7.905897493643378,-0.09304,0.05731,-1.00848,-0.0575,-0.02537,-0.00572
408,7.92532230321007,-0.19694,0.02963,-1.01392,-0.01895,-0.04997,0.04789
409,7.944747112776762,-0.25756,0.01214,-1.01538,0.06297,-0.02748,0.07725
410,7.964171922343453,-0.27121,0.0064,-1.0099,0.04627,-0.0005,0.05242
411,7.9835967319101435,-0.28087,-0.01028,-0.9423,-0.06019,0.01078,0.03138
412,8.003021541476835,-0.32403,0.02213,-1.0904,-0.0432,-0.09247,-0.02626
413,8.022446351043527,-0.28849,0.00605,-0.86353,0.08942,0.09432,-0.05875
414,8.041871160610217,-0.27026,-0.01986,-0.98205,-0.12988,0.13643,-0.00828
415,8.061295970176909,-0.18426,-0.00712,-1.12458,0.01937,-0.07288,0.02163
416,8.0807207797436,-0.13761,-0.03805,-0.96772,0.1005,0.01409,-0.02617
417,8.100145589310292,-0.07449,0.02763,-0.93095,-0.06144,0.14997,-0.03018
418,8.119570398876984,-0.075,0.01856,-1.14726,0.00828,-0.12987,-0.03017
419,8.138995208443674,-0.11253,-0.03603,-0.9394,0.08719,0.07263,0.06901
420,8.158420018010366,-0.07241,0.06726,-0.93036,-0.0848,0.10747,-0.0508
421,8.177844827577058,-0.12502,0.07314,-1.12933,0.02365,-0.16515,-0.0804
422,8.197269637143748,-0.20878,-0.02671,-0.89016,0.10824,0.0595,0.02553
423,8.21669444671044,-0.22032,0.00838,-1.06207,-0.01551,-0.05066,-0.0079
424,8.236119256277131,-0.255,-0.01485,-0.95379,0.1114,0.08489,0.01647
425,8.255544065843823,-0.24573,0.01322,-1.02882,0.02944,-0.00626,-0.01277
426,8.274968875410515,-0.27336,-0.01338,-0.97836,0.04737,0.13542,0.05368
427,8.294393684977205,-0.23062,0.0041,-1.01187,-0.05009,0.0148,-0.03612
428,8.313818494543897,-0.19638,0.00668,-0.96051,-0.14425,-0.03746,-0.01858
429,8.333243304110589,-0.2089,-0.04152,-1.01385,0.01225,0.13427,0.07385
430,8.352668113677279,-0.15211,-0.01811,-1.08116,0.10598,-0.04521,0.04022
431,8.37209292324397,-0.1387,0.03092,-0.91132,0.03184,-0.10069,-0.04362
432,8.391517732810662,-0.16723,-0.00045,-0.99629,0.05572,0.22828,0.04196
433,8.410942542377354,-0.1463,-0.00993,-1.07423,-0.11989,0.04803,0.02878
434,8.430367351944046,-0.11003,0.0191,-0.97233,-0.04233,-0.19319,-0.05426
435,8.449792161510736,-0.13949,-0.00211,-0.9935,-0.09037,-0.05558,0.03856
436,8.469216971077428,-0.17401,0.01649,-0.97709,0.12913,0.17574,-0.00268
437,8.48864178064412,-0.16595,0.01534,-1.00478,0.25442,0.12002,-0.03334
438,8.50806659021081,-0.18959,-0.03003,-1.04142,0.07914,-0.10985,0.05172
439,8.527491399777501,-0.1983,0.04291,-1.06199,-0.1092,-0.14316,-0.09493
440,8.546916209344193,-0.19786,-0.03434,-0.98862,-0.07518,-0.11259,-0.00957
441,8.566341018910885,-0.22914,-0.0646,-0.99916,-0.33237,-0.13731,0.05588
442,8.585765828477577,-0.21628,-0.01401,-1.09705,-0.5569,-0.02051,0.04334
443,8.605190638044267,-0.16004,0.00619,-0.99447,-0.6008,-0.01602,0.00542
444,8.624615447610958,-0.14397,-0.04204,-1.06116,-0.60552,-0.13909,0.06442
445,8.64404025717765,-0.10196,-0.00506,-1.06148,-0.59828,-0.33689,0.01187
446,8.66346506674434,-0.09706,-0.00345,-1.04441,-0.56907,-0.08428,-0.00032
447,8.682889876311032,-0.04045,-0.01484,-1.0065,-0.51215,0.21094,0.04958
448,8.702314685877724,-0.04509,-0.01689,-1.01465,-0.45594,0.05208,0.04396
449,8.721739495444416,0.00404,0.00886,-1.04279,-0.44233,0.1711,-0.02829
450,8.741164305011107,0.15635,-0.00402,-0.98394,-0.27363,0.1477,-0.06972
451,8.760589114577797,0.23148,-0.03051,-1.00166,-0.08304,0.24239,0.01726
452,8.78001392414449,0.26405,-0.03514,-1.09618,-0.09217,-0.09083,-0.0393
453,8.799438733711181,0.30171,0.03697,-1.0007,-0.00446,-0.25857,-0.05844
454,8.818863543277871,0.31546,0.01499,-1.00635,-0.24334,0.04701,-0.08881
455,8.838288352844563,0.29204,-0.04096,-0.9915,-0.02239,0.09426,0.09036
456,8.857713162411255,0.27516,0.0354,-1.01263,-0.05815,-0.05697,-0.01491
457,8.877137971977946,0.22429,0.05594,-0.99697,0.3746,-0.1265,0.0946
458,8.896562781544638,0.15705,0.0043,-0.95065,-0.22787,0.19667,0.07492
459,8.915987591111328,0.14447,0.06566,-1.06744,-0.06997,-0.0883,-0.0166
460,8.93541240067802,0.09133,0.0368,-0.96972,0.26506,-0.19531,-0.00066
461,8.954837210244712,0.04435,-0.02284,-0.96088,-0.05443,0.27255,0.00881
462,8.974262019811402,0.07331,-0.00455,-1.07367,-0.06052,-0.02691,0.01642
463,8.993686829378094,0.07536,-0.00762,-0.92822,0.19355,-0.07271,0.01804
464,9.013111638944785,0.11945,-0.00885,-1.04814,0.23685,0.11252,0.06681
465,9.032536448511477,0.21915,0.04722,-1.066,0.13454,-0.16686,-0.03075
466,9.051961258078169,0.19087,-0.03714,-0.96345,-0.20817,0.19443,0.02355
467,9.071386067644859,0.26691,0.04667,-1.03139,-0.10613,-0.05868,0.00238
468,9.09081087721155,0.22311,-0.03083,-0.99031,0.00574,-0.11497,0.02891
469,9.110235686778243,0.24257,0.07346,-1.00212,-0.05993,-0.10117,-0.0313
470,9.129660496344933,0.11929,-0.06761,-0.99507,0.11353,-0.01208,0.05899
471,9.149085305911624,0.13024,0.06192,-0.92042,-0.0394,0.07422,-0.06145
472,9.168510115478316,0.03459,-0.00871,-1.11448,0.17997,-0.09861,0.0067
473,9.187934925045008,-0.00431,-0.06167,-0.91035,-0.06118,0.0128,0.05818
474,9.2073597346117,-0.00607,0.09737,-1.0688,-0.11185,-0.08462,-0.01502
475,9.22678454417839,-0.043,-0.02687,-0.99795,0.03102,-0.04484,0.00903
476,9.246209353745082,0.02021,0.02583,-0.93133,0.05105,0.06142,0.03139
477,9.265634163311773,0.05803,0.0396,-1.06093,0.22531,-0.07052,-0.00894
478,9.285058972878463,0.13004,-0.01275,-0.96836,-0.01271,0.05568,-0.03947
479,9.304483782445155,0.1756,-0.06778,-1.0304,0.13951,-0.02388,0.08031
480,9.323908592011847,0.22161,0.03211,-0.98467,-0.03425,0.01541,-0.03823
481,9.343333401578539,0.24464,0.12556,-0.97165,-0.16753,0.06754,-0.12512
482,9.36275821114523,0.1822,-0.06557,-1.06252,0.05005,-0.11305,0.04886
483,9.38218302071192,0.15819,-0.07061,-0.96783,0.08252,-0.05649,0.00558
484,9.401607830278612,0.12707,0.06778,-0.99387,0.04907,-0.02039,-0.10223
485,9.421032639845304,0.05996,0.01136,-1.03433,-0.04826,0.07137,0.01366
486,9.440457449411994,-0.04644,-0.00695,-0.98087,-0.09504,0.022,0.06856
487,9.459882258978686,-0.07665,0.08409,-0.99255,-0.04694,-0.02975,0.00595
488,9.479307068545378,-0.09741,0.00949,-1.0501,0.03511,-0.0319,0.04751
489,9.49873187811207,-0.12905,-0.02285,-0.97939,0.0716,-0.0377,0.02181
490,9.518156687678761,-0.12393,-0.02951,-0.97365,0.03383,0.00913,0.04147
491,9.537581497245451,-0.08433,-0.00189,-0.99432,-0.06222,0.04644,-0.00361
492,9.557006306812143,-0.01945,-6e-05,-1.02821,-0.00605,0.00646,0.06503
493,9.576431116378835,0.05544,-0.05656,-1.02873,0.04613,-0.04895,0.08043
494,9.595855925945525,0.15743,0.03543,-0.96119,0.07129,0.07319,0.01946
495,9.615280735512217,0.21617,0.01557,-0.95229,0.02429,0.13826,0.01793
496,9.634705545078909,0.22331,0.01399,-1.05289,-0.05095,0.0038,0.00685
497,9.6541303546456,0.24166,0.02882,-1.02168,-0.01951,-0.0163,-0.04452
498,9.673555164212292,0.10081,0.02146,-0.99114,-0.05331,-0.11706,-0.06462
499,9.692979973778982,-0.02007,0.03533,-1.00353,-0.10919,0.05262,-0.01184
500,9.712404783345674,-0.00435,0.0134,-0.98979,-0.00409,0.04735,-0.00451
501,9.731829592912366,-0.01273,-0.02099,-1.01441,0.01723,-0.00197,0.01667
502,9.751254402479056,0.01112,-0.00107,-1.01643,-0.0072,-0.00801,0.00823
503,9.770679212045748,0.0196,0.00059,-0.9982,0.00045,0.00171,0.01797
504,9.79010402161244,0.00849,0.03016,-1.00069,-0.0062,-0.01141,-0.00252
505,9.809528831179131,0.01992,0.00244,-1.00375,-0.00476,-0.00279,0.00278
506,9.828953640745823,0.01581,0.00247,-1.00188,-0.00073,0.002,0.01227
507,9.848378450312513,0.01098,0.01739,-1.00187,0.00323,-0.0031,0.00766
508,9.867803259879205,0.0093,0.01112,-1.00206,0.00212,0.00191,0.00473
509,9.887228069445896,0.00291,0.00825,-1.0033,0.00382,0.00586,0.00789
510,9.906652879012587,0.00345,0.01384,-1.00311,0.004,0.00786,0.00436
511,9.926077688579278,0.00418,0.00752,-1.00145,0.00165,0.0071,0.00649
512,9.94550249814597,0.00353,0.0051,-1.00163,0.00335,0.00631,0.00676
513,9.964927307712662,0.00382,0.00871,-1.00243,-0.00037,0.00803,0.00664
514,9.984352117279354,0.00313,0.00648,-1.00297,-0.00072,0.00741,0.00534
515,10.003776926846044,0.00349,0.00589,-1.00382,-0.00515,0.00604,0.00779
516,10.023201736412735,0.00233,0.00648,-1.00372,-0.00748,0.0057,0.00885
517,10.042626545979427,0.00044,0.00754,-1.00516,-0.00796,0.00623,0.00514
518,10.062051355546117,0.00018,0.00725,-1.00445,-0.0087,0.00395,0.00921
519,10.081476165112809,0.00013,0.00713,-1.00439,-0.00911,0.00612,0.00676
520,10.1009009746795,-0.00349,0.00708,-1.00346,-0.01189,0.00352,0.00649
521,10.120325784246193,-0.00674,0.00763,-1.00609,-0.01239,0.00539,0.00633
522,10.139750593812884,-0.00817,0.00606,-1.00539,-0.01111,0.00665,0.00759
523,10.159175403379574,-0.00793,0.00836,-1.00332,-0.01216,0.00606,0.00623
524,10.178600212946266,-0.00877,0.00667,-1.00104,-0.00893,0.0078,0.00793
525,10.198025022512958,-0.01176,0.00833,-1.00234,-0.01006,0.00771,0.00564
526,10.217449832079648,-0.01284,0.00829,-1.00406,-0.00889,0.00962,0.00658
527,10.23687464164634,-0.0132,0.01009,-1.00518,-0.01243,0.01002,0.0046
528,10.256299451213032,-0.01251,0.00797,-1.0047,-0.0131,0.00937,0.0064
529,10.275724260779723,-0.01011,0.00886,-1.00164,-0.01008,0.00724,0.00692
530,10.295149070346415,-0.00968,0.00823,-1.00269,-0.00837,0.01014,0.00689
531,10.314573879913105,-0.00787,0.00923,-1.0032,-0.01031,0.00834,0.00488
532,10.333998689479797,-0.00655,0.00756,-1.00156,-0.0099,0.01124,0.00505
533,10.353423499046489,-0.0054,0.00873,-1.0013,-0.01032,0.0123,0.00512
534,10.372848308613179,-0.00249,0.00879,-1.00211,-0.00831,0.01063,0.00701
535,10.39227311817987,0.0012,0.00916,-1.00414,-0.00741,0.01145,0.00525
536,10.411697927746562,0.00171,0.00985,-1.00338,-0.00803,0.01488,0.00318
537,10.431122737313254,-6e-05,0.00922,-1.00172,-0.00884,0.01418,0.007
538,10.450547546879946,-0.00203,0.00695,-1.00203,-0.00705,0.01486,0.01095
539,10.469972356446636,-0.00279,0.00695,-1.00287,-0.00989,0.01365,0.00757
540,10.489397166013328,-0.00422,0.01095,-1.00333,-0.00775,0.01404,0.00571
541,10.50882197558002,-0.00587,0.01132,-1.00312,-0.00836,0.01484,0.00835
542,10.52824678514671,-0.00696,0.00798,-1.00189,-0.00871,0.01429,0.00763
543,10.547671594713401,-0.00732,0.00856,-1.00124,-0.00587,0.01394,0.00888
544,10.567096404280093,-0.00755,0.01307,-1.00332,-0.00272,0.01342,0.00695
545,10.586521213846785,-0.01406,0.01887,-1.00745,0.01038,0.00142,-0.0151
546,10.605946023413477,-0.02529,0.03153,-1.00512,0.01472,-0.00025,-0.03661
547,10.625370832980167,-0.02629,0.02651,-0.99927,0.01204,0.0027,-0.03851
548,10.644795642546859,-0.02665,0.01024,-1.0082,0.00823,-0.01811,-0.02844
549,10.66422045211355,-0.09075,-0.04931,-1.00982,0.00899,-0.00025,0.05933
550,10.68364526168024,-0.09529,-0.0549,-0.99554,0.01097,0.00924,0.00656
551,10.703070071246932,-0.08267,-0.10644,-0.99779,0.01657,0.01773,-0.00727
552,10.722494880813624,-0.07585,-0.2018,-1.011,0.01285,0.01041,-0.00819
553,10.741919690380316,-0.05621,-0.21085,-0.98769,-0.06011,-0.00801,-0.0664
554,10.761344499947008,-0.05083,-0.23155,-0.98215,-0.09526,0.03061,-0.1716
555,10.780769309513698,-0.0301,-0.24748,-1.02781,0.00276,0.13365,-0.25361
556,10.80019411908039,-0.04942,-0.30838,-0.9383,-0.0082,0.02771,0.16444
557,10.819618928647081,-0.05858,-0.32337,-1.14992,0.00937,-0.04811,0.14983
558,10.839043738213771,0.0392,-0.12349,-0.82074,0.03745,0.17033,0.15129
559,10.858468547780463,0.04937,-0.03328,-1.12376,-0.05571,-0.10789,0.11046
560,10.877893357347155,0.04541,-0.01667,-0.86493,0.11265,0.05593,-0.01479
561,10.897318166913847,0.07029,-0.08034,-1.01948,-0.04346,0.08287,-0.0229
562,10.916742976480538,0.00394,-0.085,-1.17157,-0.10121,-0.15447,0.03837
563,10.936167786047228,-0.01118,-0.15613,-0.78353,0.14664,0.03945,-0.0815
564,10.95559259561392,-0.05125,-0.16784,-1.0926,-0.04646,-0.02719,-0.02584
565,10.975017405180612,-0.04216,-0.16501,-0.94664,0.20807,0.06563,-0.05066
566,10.994442214747302,-0.07064,-0.27264,-1.05452,0.34262,-0.01676,-0.01078
567,11.013867024313994,-0.0682,-0.12785,-0.93137,-0.16998,0.02117,-0.04004
568,11.033291833880686,-0.06132,-0.18166,-1.02258,-0.19487,0.32643,-0.07713
569,11.052716643447377,-0.05367,-0.24829,-1.00952,-0.04994,-0.05449,0.17734
570,11.07214145301407,-0.01102,-0.11583,-1.00688,-0.0449,-0.16429,-0.01525
571,11.09156626258076,0.00493,-0.09436,-1.09074,-0.17038,-0.02959,0.04398
572,11.110991072147451,0.01119,-0.08603,-1.01035,-0.07269,-0.02184,0.04847
573,11.130415881714143,-0.02049,-0.21876,-0.88469,0.27022,-0.05604,0.15461
574,11.149840691280833,0.0179,-0.0644,-1.08151,-0.03508,0.06939,-0.1199
575,11.169265500847525,0.01145,-0.08513,-1.02525,-0.14951,-0.02045,-0.07349
576,11.188690310414216,-0.00845,-0.23394,-0.98128,-0.05691,-0.18982,0.03309
577,11.208115119980908,-0.06882,-0.16361,-1.00266,-0.08339,-0.22922,0.00348
578,11.2275399295476,-0.04604,-0.08415,-0.98719,-0.24933,0.20745,-0.06263
579,11.24696473911429,-0.06819,-0.16975,-0.94604,-0.17347,0.32168,0.01646
580,11.266389548680982,-0.06082,-0.15402,-1.03794,-0.02118,0.19075,-0.0443
581,11.285814358247674,-0.0349,-0.09857,-0.97692,-0.00079,0.02848,-0.03368
582,11.305239167814364,-0.00894,-0.17161,-1.00226,0.17773,0.08659,-0.06552
583,11.324663977381055,-0.02342,-0.15527,-1.00606,0.13663,-0.07924,0.05071
584,11.344088786947747,-0.00278,-0.12521,-1.08219,-0.18922,-0.03244,-0.00648
585,11.363513596514439,0.00231,-0.15068,-0.9735,-0.20616,-0.1435,0.10619
586,11.38293840608113,0.01374,-0.0699,-0.99313,-0.28921,-0.0724,0.02983
587,11.40236321564782,0.01303,-0.0842,-1.03352,-0.37486,-0.10595,-0.04776
588,11.421788025214513,0.01032,-0.10525,-1.02216,-0.27871,-0.19366,0.0193
589,11.441212834781204,0.00669,-0.04468,-1.02186,-0.53764,-0.09579,-0.05333
590,11.460637644347894,0.01683,0.02099,-1.04695,-0.52287,-0.11051,-0.03252
591,11.480062453914586,-0.02399,0.12757,-1.02374,-0.37474,-0.10481,0.01932
592,11.499487263481278,-0.00496,0.21377,-0.9532,-0.16606,0.01102,0.11374
593,11.51891207304797,-0.01813,0.31611,-0.97911,0.21366,0.13685,0.08799
594,11.538336882614662,-0.01276,0.33523,-1.02004,0.00675,0.06396,0.04653
595,11.557761692181352,-0.00771,0.2907,-1.00136,-0.02568,0.01312,0.07884
596,11.577186501748043,0.05356,0.34367,-1.06894,0.19139,-0.13675,-0.07599
597,11.596611311314735,0.01798,0.26252,-0.91437,0.09626,0.01707,-0.11237
598,11.616036120881425,0.01343,0.18803,-1.01461,0.01285,0.14131,-0.08539
599,11.635460930448117,0.00279,0.12395,-1.10277,0.13925,-0.0854,-0.07724
600,11.654885740014809,-0.0117,0.03789,-0.92975,-0.02285,0.05911,0.01027
601,11.6743105495815,-0.01633,0.06445,-0.97341,-0.12151,0.07772,-0.03588
602,11.693735359148192,-0.01542,0.09665,-1.04572,0.14399,-0.16056,0.02256
603,11.713160168714882,-0.021,0.10085,-0.97325,-0.09621,0.1152,0.05001
604,11.732584978281574,-0.01056,0.18671,-0.97628,-0.18442,0.15518,-0.02551
605,11.752009787848266,0.00236,0.21585,-1.03172,-0.11234,-0.01663,0.0529
606,11.771434597414956,-0.03165,0.22657,-0.97127,-0.12239,0.06086,-0.03566
607,11.790859406981648,0.02703,0.22875,-0.99209,-0.08264,0.04855,0.02622
608,11.81028421654834,-0.02951,0.24493,-1.00534,-0.19633,-0.0075,-0.12882
609,11.829709026115031,-0.00438,0.15168,-1.0146,-0.15761,0.08328,0.05127
610,11.849133835681723,-0.03127,0.15224,-0.99193,0.06725,0.02761,-0.06788
611,11.868558645248413,0.0011,0.05588,-0.94334,-0.03807,0.08989,0.0154
612,11.887983454815105,-0.0092,0.07896,-1.04202,0.05901,-0.04151,0.00273
613,11.907408264381797,-0.01259,0.00023,-0.98438,0.02139,0.04848,0.02612
614,11.926833073948487,0.01261,0.06018,-1.04274,-0.0315,-0.04057,0.05429
615,11.946257883515178,-0.02915,0.07057,-0.96381,0.00157,-0.04285,-0.0421
616,11.96568269308187,0.01989,0.10765,-1.02719,-0.15722,0.09801,0.0286
617,11.985107502648562,-0.04711,0.14474,-1.03416,0.08091,-0.07227,0.0232
618,12.004532312215254,-0.00506,0.15857,-0.90049,0.04393,0.12918,0.01343
619,12.023957121781944,0.01133,0.1906,-1.06041,-0.06473,0.10267,0.07797
620,12.043381931348636,-0.0245,0.23537,-1.02376,0.11455,-0.14716,-0.08682
621,12.062806740915327,-0.01512,0.11857,-0.92272,0.02117,0.10832,0.05756
622,12.082231550482017,-0.01307,0.11407,-1.04548,-0.08927,0.03391,0.04932
623,12.10165636004871,-0.00945,0.11209,-1.04924,-0.00756,-0.08882,-0.01276
624,12.121081169615401,-0.03022,0.06969,-0.93042,0.14955,0.0795,-0.05192
625,12.140505979182093,-0.01738,0.04414,-0.96892,-0.10883,0.1262,0.01342
626,12.159930788748785,-0.04184,0.06658,-1.09286,-0.09618,-0.04797,0.01715
627,12.179355598315475,-0.03475,0.02528,-0.97119,0.00945,0.01506,0.1645
628,12.198780407882166,-0.02402,0.1635,-0.98055,0.10572,0.04239,0.00103
629,12.218205217448858,0.01784,0.11371,-1.034,-0.11867,0.02411,-0.04785
630,12.237630027015548,0.0073,0.05725,-1.01627,-0.06095,-0.02049,-0.01201
631,12.25705483658224,0.02346,0.05493,-0.99616,-0.0003,0.00613,0.01785
632,12.276479646148932,0.01712,0.0523,-1.01472,-0.00152,-0.06334,0.01765
633,12.295904455715624,-0.01775,0.08955,-0.99296,0.07427,0.04353,-0.03409
634,12.315329265282315,-0.01513,-0.01727,-0.97144,-0.01028,0.05317,0.08598
635,12.334754074849005,-0.0169,0.02959,-1.03193,-0.061,-0.01141,0.07055
636,12.354178884415697,-0.02215,0.05605,-1.01462,-0.03003,0.00234,-0.00706
637,12.373603693982389,-0.02162,0.05949,-0.98821,-0.01133,0.00903,-0.0223
638,12.393028503549079,-0.01347,0.09028,-1.01212,-0.03807,0.00601,-0.0288
639,12.41245331311577,-0.0224,0.11853,-1.0124,-0.04477,-0.02176,-0.09051
640,12.431878122682463,-0.05028,0.14021,-1.0132,0.0087,-0.04874,-0.10052
641,12.451302932249154,-0.04903,0.07238,-0.97688,0.03841,0.01773,-0.08311
642,12.470727741815846,-0.00147,0.09434,-0.99392,0.00838,0.00367,-0.12586
643,12.490152551382536,-0.02342,0.07041,-0.99228,0.01412,0.0208,-0.07335
644,12.509577360949228,-0.03952,0.0097,-0.99462,0.0294,0.02741,-0.00912
645,12.52900217051592,-0.03953,0.01545,-1.01286,0.0021,0.02584,0.06336
646,12.54842698008261,-0.01429,0.06722,-1.02497,-0.02753,0.01194,0.08188
647,12.567851789649302,-0.01052,0.07009,-1.00475,-0.01988,0.00903,0.10442
648,12.587276599215993,-0.00891,0.07236,-1.00498,-0.01909,0.00031,0.10914
649,12.606701408782685,-0.00787,0.0776,-1.00424,-0.01278,0.00368,0.12519
650,12.626126218349377,-0.00299,0.07514,-1.00182,-0.0132,0.00577,0.11968
651,12.645551027916067,0.00311,0.06998,-0.99979,-0.00644,0.0013,0.06959
652,12.664975837482759,0.00763,0.06497,-1.00273,-0.00636,0.00762,0.00964
653,12.68440064704945,0.00355,0.02701,-0.99733,0.00603,0.01181,-0.01055
654,12.70382545661614,-0.00509,0.00784,-1.00508,-0.00246,0.01063,0.01192
655,12.723250266182832,-0.00388,0.02742,-1.0008,-0.0044,0.0111,0.00422
656,12.742675075749524,-0.00615,0.01499,-1.00163,-0.00477,0.00515,0.00232
657,12.762099885316216,-0.0079,0.00646,-1.00228,-0.00728,0.00883,0.01106
658,12.781524694882908,-0.0069,0.01903,-1.00168,-0.00504,0.00858,0.01036
659,12.800949504449598,-0.00812,0.01658,-1.00287,-0.00424,0.00917,0.00072
660,12.82037431401629,-0.00853,0.00995,-1.00331,-0.00658,0.00982,0.00773
661,12.839799123582981,-0.00879,0.01671,-1.00341,-0.00361,0.00887,0.00579
662,12.859223933149671,-0.00691,0.01765,-1.00377,-0.00428,0.01159,0.00075
663,12.878648742716363,-0.00566,0.01348,-1.00364,-0.0069,0.00966,0.00574
664,12.898073552283055,-0.00686,0.01366,-1.00317,-0.00413,0.01077,0.00731
665,12.917498361849747,-0.007,0.01676,-1.00297,-0.00869,0.00715,0.00222
666,12.936923171416439,-0.00672,0.01407,-1.00171,-0.0055,0.00956,0.00484
667,12.956347980983129,-0.00771,0.01365,-1.00067,-0.00481,0.01035,0.00631
668,12.97577279054982,-0.00922,0.01604,-1.00107,-0.00572,0.00854,0.00486
669,12.995197600116512,-0.01013,0.01494,-1.00176,-0.0055,0.00826,0.0055
670,13.014622409683202,-0.01199,0.01419,-1.00418,-0.00431,0.01,0.00783
671,13.034047219249894,-0.01146,0.01633,-1.00079,-0.00111,0.00979,0.00464
672,13.053472028816586,-0.0122,0.01473,-1.00013,-0.00437,0.01072,0.00572
673,13.072896838383278,-0.01343,0.01311,-1.00243,-0.00798,0.00878,0.00841
674,13.09232164794997,-0.01339,0.01524,-1.00343,-0.00518,0.00933,0.00719
675,13.11174645751666,-0.01547,0.01542,-1.00102,-0.00782,0.0079,0.00755
676,13.131171267083351,-0.01707,0.01354,-1.00251,-0.00843,0.00981,0.00949
677,13.150596076650043,-0.02676,0.01288,-1.003,-0.00949,0.00614,0.0155
678,13.170020886216733,-0.02927,0.01267,-1.00276,-0.00441,0.00796,0.018
679,13.189445695783425,-0.03184,0.01096,-1.00385,-0.00784,0.00798,0.02183
680,13.208870505350117,-0.03064,0.01333,-1.003,-0.00661,0.00756,0.01886
681,13.228295314916808,-0.0279,0.01861,-1.00272,-0.00382,0.00682,0.01448
682,13.2477201244835,-0.02525,0.0236,-1.00287,-0.00691,0.00768,0.00473
683,13.26714493405019,-0.02138,0.01916,-1.00218,-0.00447,0.0089,0.00465
684,13.286569743616882,-0.01801,0.01242,-1.0037,-0.00536,0.00904,0.00689
685,13.305994553183574,-0.01291,0.01503,-1.00391,-0.00486,0.00865,0.00302
686,13.325419362750264,-0.0088,0.01727,-1.00255,-0.00442,0.00996,0.00523
687,13.344844172316956,-0.00698,0.01296,-1.00282,-0.00528,0.00794,0.00759
688,13.364268981883647,-0.00485,0.01417,-1.00318,-0.00408,0.00637,0.00597
689,13.383693791450339,-0.00387,0.0148,-1.00213,-0.00471,0.00912,0.00768
690,13.403118601017031,-0.00315,0.01428,-1.00342,-0.00477,0.00788,0.00628
691,13.422543410583721,0.00563,0.01075,-1.00061,-0.00795,0.01831,0.01344
692,13.441968220150413,0.06675,7e-05,-0.9816,-0.05574,0.08865,0.02894
693,13.461393029717104,0.1485,-0.00336,-0.9972,-0.04859,0.10431,0.05739
694,13.480817839283795,0.20427,-0.02387,-1.04545,-0.02967,0.03152,0.08275
695,13.500242648850486,0.2425,0.08487,-1.04368,-0.01927,-0.11802,-0.0653
696,13.519667458417178,0.30052,0.00834,-0.93916,0.02747,0.00712,-0.0824
697,13.53909226798387,0.27587,-0.03727,-0.98828,-0.02386,0.03247,0.01387
698,13.558517077550562,0.24217,-0.02928,-1.05439,0.07619,-0.12356,0.03972
699,13.577941887117252,0.1348,0.06398,-1.06708,-0.01623,-0.02081,-0.06944
700,13.597366696683943,0.1348,0.06398,-1.06708,-0.01623,-0.02081,-0.06944
701,13.616791506250635,0.06684,-0.01415,-1.01688,-0.00051,-0.01112,0.06775
702,13.636216315817325,0.0107,0.03818,-1.1191,-0.08855,0.01474,0.02309
703,13.655641125384017,0.08029,0.0429,-0.89241,-0.02869,-0.01016,0.00608
704,13.675065934950709,0.0821,-0.00443,-1.02039,0.07032,-0.02897,0.01031
705,13.6944907445174,0.06442,0.00991,-1.03173,-0.0181,0.10248,0.05374
706,13.713915554084092,0.18158,0.01502,-0.94543,-0.04476,0.08198,0.01692
707,13.733340363650782,0.17862,0.00586,-1.11734,-0.09967,-0.01964,0.00502
708,13.752765173217474,0.23074,0.04983,-0.91975,0.01126,0.00312,-0.01072
709,13.772189982784166,0.23002,0.03959,-1.09554,-0.03058,-0.11796,-0.0838
710,13.791614792350856,0.21483,0.0373,-0.90724,-0.00825,0.0654,0.01032
711,13.811039601917548,0.19379,-0.04727,-1.10336,-0.0985,0.06735,0.03053
712,13.83046441148424,0.199,0.03072,-0.95902,0.06579,-0.08141,0.0189
713,13.849889221050931,0.13959,0.02964,-0.95302,0.054,0.17484,0.018
714,13.869314030617623,0.15229,-0.00567,-1.0617,-0.25622,0.06684,0.03281
715,13.888738840184313,0.12213,0.02222,-0.96174,0.14374,0.16039,0.02
716,13.908163649751005,0.13413,0.00991,-1.0463,-0.04423,0.0391,-0.01444
717,13.927588459317697,0.13488,0.00031,-1.05211,0.06701,-0.26567,-0.00736
718,13.947013268884387,0.08879,0.01371,-1.01308,0.01394,0.00788,0.06039
719,13.966438078451079,0.10046,0.00718,-0.96888,0.22454,0.23864,0.02822
720,13.98586288801777,0.11588,0.01113,-0.95275,-0.17884,0.22063,-0.02278
721,14.005287697584462,0.17091,0.02583,-1.07676,-0.26591,-0.13496,0.01029
722,14.024712507151154,0.18273,0.01404,-1.05232,-0.16179,-0.17997,-0.03979
723,14.044137316717844,0.20439,0.00479,-0.95497,0.16914,-0.18798,-0.01161
724,14.063562126284536,0.19215,-0.00314,-1.02489,0.26686,-0.02722,0.05307
725,14.082986935851228,0.17329,-0.01733,-0.90686,0.27986,0.20436,0.0464
726,14.102411745417918,0.15685,-0.01194,-0.96931,0.261,0.18822,0.04172
727,14.12183655498461,0.13488,0.01832,-0.95952,0.23113,0.22204,0.02828
728,14.141261364551301,0.09774,0.00097,-0.95356,0.20545,0.28159,0.06715
729,14.160686174117993,0.08907,0.04595,-0.97159,0.38,0.1552,0.08231
730,14.180110983684685,0.064,0.05967,-0.97703,0.27306,0.095,-0.00915
731,14.199535793251375,0.03421,0.05789,-0.96998,0.32931,0.14288,0.00243
732,14.218960602818067,-0.03859,0.01238,-0.99411,0.45366,0.15222,0.10253
733,14.238385412384758,-0.09285,0.03797,-0.92141,0.41736,0.14638,0.04392
734,14.257810221951448,-0.17303,0.07014,-1.02948,0.26484,0.11565,-0.05758
735,14.27723503151814,-0.28692,0.00823,-0.95583,0.13641,0.10934,0.00192
736,14.296659841084832,-0.33671,8e-05,-1.00294,-0.12278,0.02523,-0.02143
737,14.316084650651524,-0.31219,0.05055,-0.97089,0.07263,-0.01629,-0.13408
738,14.335509460218216,-0.30779,-0.01959,-1.01352,0.13232,-0.02109,-0.01407
739,14.354934269784906,-0.33341,-0.08359,-0.95614,0.00968,-0.00399,0.05889
740,14.374359079351597,-0.29971,-0.07623,-1.03719,-0.07138,0.2236,0.0871
741,14.39378388891829,-0.19157,0.03473,-0.97665,-0.02766,-0.14686,-0.00219
742,14.41320869848498,-0.14476,0.04545,-0.97684,-0.00504,0.00933,0.00974
743,14.432633508051671,-0.13947,0.00573,-1.03122,-0.06332,0.18768,0.08701
744,14.452058317618363,-0.07225,0.0272,-1.07352,-0.05187,-0.21542,0.03834
745,14.471483127185055,-0.06018,0.07929,-0.90475,-0.06076,0.03122,-0.03902
746,14.490907936751746,-0.09217,-0.00273,-1.09305,-0.12043,0.18598,0.03715
747,14.510332746318436,-0.14216,0.03232,-1.01397,0.17492,-0.01808,-0.00341
748,14.529757555885128,-0.14216,0.03232,-1.01397,0.17492,-0.01808,-0.00341
749,14.54918236545182,-0.21066,-0.00555,-0.9504,0.04311,-0.05592,0.01245
750,14.56860717501851,-0.19923,-7e-05,-1.00713,0.02373,-0.04269,-0.00762
751,14.588031984585202,-0.22405,0.00756,-0.9827,0.0521,0.00534,-0.02271
752,14.607456794151894,-0.20159,-0.00428,-0.97518,-0.02038,0.07176,0.02849
753,14.626881603718585,-0.20125,-0.00033,-1.0266,-0.00067,0.05606,0.02671
754,14.646306413285277,-0.10807,0.02869,-0.90872,-0.03754,0.1544,-0.02118
755,14.665731222851967,-0.10304,-0.00865,-1.13051,0.03132,-0.05372,0.0281
756,14.685156032418659,-0.00166,0.04264,-0.99475,0.00093,0.05745,-0.00633
757,14.70458084198535,-0.03625,0.02458,-1.06542,0.00243,-0.01344,-0.00824
758,14.72400565155204,-0.03578,0.00205,-0.92575,-0.02492,0.04087,-0.00376
759,14.743430461118733,-0.04664,-0.00198,-1.07115,-0.00397,-0.09547,0.01605
760,14.762855270685424,-0.14947,0.00261,-1.02621,-0.00594,-0.03499,0.00313
761,14.782280080252116,-0.13797,0.02064,-0.89672,-0.0145,0.06374,-0.02799
762,14.801704889818808,-0.16363,0.00222,-1.06668,-0.08885,-0.04103,0.00619
763,14.821129699385498,-0.23094,-0.01029,-1.08416,-0.00031,-0.04276,-0.00032
764,14.84055450895219,-0.17519,0.01469,-0.85789,0.0196,0.03926,0.04151
765,14.859979318518882,-0.11334,0.03351,-0.98755,-0.06967,0.10179,-0.02331
766,14.879404128085572,-0.11766,-0.03596,-1.08981,0.07959,-0.06591,0.08787
767,14.898828937652263,-0.03545,0.0648,-0.95086,0.02428,-0.02114,-0.05455
768,14.918253747218955,0.04935,0.03208,-0.93623,0.00801,0.07625,-0.03027
769,14.937678556785647,-0.00326,-0.00799,-1.01514,-0.0242,0.04778,0.03832
770,14.957103366352339,-0.06225,0.02066,-1.07749,-0.0004,-0.1097,0.0466
771,14.976528175919029,-0.11912,0.0477,-0.98286,0.03266,-0.0669,-0.01896
772,14.99595298548572,-0.11034,0.02145,-0.92327,0.02425,-0.00198,0.01511
773,15.015377795052412,-0.13327,0.01404,-1.00146,-0.00761,0.01316,-0.00549
774,15.034802604619102,-0.1433,0.0068,-1.01759,-0.01447,0.03356,-0.02513
775,15.054227414185794,-0.15492,3e-05,-1.00081,-0.00296,0.01877,-0.0069
776,15.073652223752486,-0.14482,0.00284,-1.0056,-0.00488,0.02904,-0.01326
777,15.093077033319178,-0.1215,-0.00886,-1.0133,-0.0218,0.01764,0.02611
778,15.11250184288587,-0.09039,-0.02387,-1.00846,-0.01742,0.01712,0.06886
779,15.13192665245256,-0.0265,0.02904,-1.00682,-0.01105,0.00256,0.02318
780,15.151351462019251,0.03578,0.06308,-1.0033,-0.02759,0.02405,-0.03135
781,15.170776271585943,0.06411,0.02418,-0.99415,-0.03583,0.02905,-0.00294
782,15.190201081152633,0.10204,-0.00322,-0.99985,0.00131,0.03349,0.0209
783,15.209625890719325,0.12063,-0.00437,-1.00565,0.02027,-0.00999,0.05196
784,15.229050700286017,0.11248,0.01094,-0.99844,-0.01543,-0.02059,0.01275
785,15.248475509852708,0.03723,0.00794,-1.00355,-0.03729,-0.00197,0.00847
786,15.2679003194194,-0.02049,-0.01199,-0.99278,-0.02016,0.04359,0.01205
787,15.28732512898609,-0.00762,0.0269,-0.99862,-0.0101,0.05516,-0.00215
788,15.306749938552782,-0.02804,0.0163,-1.01637,-0.02425,0.00828,0.00977
789,15.326174748119474,-0.04755,-0.01536,-1.04144,-0.06732,-0.00853,0.04767
790,15.345599557686164,-0.03223,0.03447,-1.01527,0.03377,-0.03052,-0.00989
791,15.365024367252856,-0.0331,0.05725,-0.9609,0.04558,-0.00166,-0.01145
792,15.384449176819547,-0.01247,0.02256,-0.97782,0.02917,0.01178,-0.03484
793,15.40387398638624,-0.01381,-0.02481,-1.0149,-0.0288,0.01525,-0.00449
794,15.423298795952931,-0.02901,-0.02817,-1.00092,-0.00603,0.02579,0.0246
795,15.442723605519621,-0.01475,0.03041,-0.99881,-0.00896,0.02479,0.01812
796,15.462148415086313,-0.00824,0.03226,-1.00598,-0.00778,0.02271,-0.0067
797,15.481573224653005,-0.01891,0.00037,-1.00987,-0.02929,0.01997,0.01547
798,15.500998034219695,-0.04422,-0.02551,-1.02681,-0.06445,-0.02041,0.06486
799,15.520422843786386,-0.03898,0.07296,-0.97645,0.04761,-0.01102,-0.03303
800,15.539847653353078,-0.0277,0.02143,-0.97639,0.0411,0.01266,-0.02119
801,15.55927246291977,-0.02293,-0.02358,-0.99926,-5e-05,0.01559,0.00795
802,15.578697272486462,-0.01703,-0.02486,-1.0045,-0.01007,0.00113,0.0263
803,15.598122082053152,0.006,0.02854,-0.99937,-0.01102,-0.00189,-0.00476
804,15.617546891619844,-0.0041,0.03258,-1.00236,-0.00084,0.02997,-0.01152
805,15.636971701186535,-0.01861,-0.00165,-1.00369,-0.00062,0.03641,0.01174
806,15.656396510753225,-0.02764,-0.00498,-1.00885,-0.01355,0.02592,0.02643
807,15.675821320319917,-0.02301,0.01339,-1.00869,-0.01194,0.01711,0.01657
808,15.695246129886609,-0.03527,0.00265,-1.01155,-0.0182,0.00638,0.03533
809,15.7146709394533,-0.04634,-0.01471,-1.0253,-0.02569,-0.0112,0.04944
810,15.734095749019993,-0.05224,0.04895,-1.00946,0.00134,-0.00876,-0.00893
811,15.753520558586683,-0.04998,0.0613,-0.9821,0.01573,2e-05,-0.01993
812,15.772945368153374,-0.04377,0.00956,-0.99294,0.01051,-0.00025,-0.00199
813,15.792370177720066,-0.04299,-0.02409,-1.00038,0.00496,-0.00166,0.02711
814,15.811794987286756,-0.02814,0.00121,-0.99926,0.0038,0.00294,0.01676
815,15.831219796853448,-0.0132,0.02916,-0.99652,-0.00291,0.01216,-0.00361
816,15.85064460642014,-0.00909,0.0137,-0.99787,-0.00138,0.0144,-0.00574
817,15.870069415986832,-0.00702,-0.00012,-1.00297,-0.00873,0.00618,0.0104
818,15.889494225553523,0.00074,0.00503,-1.00192,-0.00825,0.00786,0.01412
819,15.908919035120213,0.00773,0.0145,-1.00355,-0.00758,0.00881,0.00138
820,15.928343844686905,-0.00294,0.00705,-1.00446,-0.01465,0.01226,0.01311
821,15.947768654253597,-0.01536,-0.00205,-1.00203,-0.01377,0.02336,0.02981
822,15.967193463820287,-0.01441,0.01248,-1.00216,-0.0193,0.02052,0.01999
823,15.986618273386979,-0.0146,0.01995,-0.99946,-0.01368,0.02313,0.00751
824,16.00604308295367,-0.01817,0.02476,-1.00294,-0.01457,0.02415,-0.00871
825,16.02546789252036,-0.02185,0.00838,-1.00527,-0.01112,0.02006,0.00617
826,16.044892702087054,-0.02355,0.0032,-1.0068,-0.01033,0.00895,0.01378
827,16.064317511653744,-0.03259,-0.00075,-1.00521,-0.01246,0.00834,0.03906
828,16.083742321220434,-0.04222,-0.0113,-1.00222,-0.01096,0.01181,0.04534
829,16.103167130787128,-0.04204,-0.01691,-1.00161,-0.00668,0.00501,0.07292
830,16.122591940353818,-0.04715,0.00832,-1.01137,0.00606,-0.0026,0.07133
831,16.14201674992051,-0.05361,0.05263,-1.00687,0.00073,-0.00116,0.02532
832,16.1614415594872,-0.05126,0.06706,-0.99699,-0.00631,0.00733,-0.0151
833,16.18086636905389,-0.06296,0.01314,-0.99841,-0.0036,0.00476,-0.00327
834,16.200291178620585,-0.06636,-0.02078,-1.0023,-0.01026,0.00782,0.01712
835,16.219715988187275,-0.05305,0.01594,-0.99883,-0.00583,0.01203,0.00514
836,16.23914079775397,-0.06846,0.03916,-1.00726,0.01382,-0.04781,-0.01391
837,16.25856560732066,-0.14811,0.05095,-1.00728,-0.02017,-0.02239,0.0268
838,16.27799041688735,-0.12728,0.07971,-0.98627,-0.09815,0.02485,0.08122
839,16.297415226454042,-0.06795,0.2351,-1.01202,-0.07232,-0.00726,-0.01188
840,16.316840036020732,-0.04459,0.24894,-1.06491,-0.05169,0.0018,0.03888
841,16.336264845587422,-0.02038,0.26214,-0.96011,0.11556,-0.13796,-0.04523
842,16.355689655154116,-0.05293,0.20869,-0.91662,-0.10858,0.09275,0.18998
843,16.375114464720806,0.04015,0.35766,-1.12083,-0.07934,0.09914,-0.03926
844,16.394539274287496,0.01765,0.23325,-0.94412,0.16055,-0.03433,-0.09999
845,16.41396408385419,0.02449,0.14546,-0.92625,-0.02338,0.03708,0.02809
846,16.43338889342088,0.01156,0.14048,-1.10342,-0.01588,-0.01574,0.01015
847,16.452813702987573,0.01035,0.07475,-1.03292,0.07827,-0.0157,0.04232
848,16.472238512554263,0.07603,0.20182,-0.8668,-0.01049,0.11201,-0.08857
849,16.491663322120953,0.05432,0.19374,-1.06879,0.13921,0.02779,-0.04663
850,16.511088131687647,0.01885,0.0702,-1.0432,-0.0196,-0.00741,0.07967
851,16.530512941254337,0.04039,0.24337,-0.93167,-0.06618,-0.01233,0.00706
852,16.54993775082103,0.01094,0.11894,-1.08912,-0.0272,-0.06508,0.07415
853,16.56936256038772,-0.01789,0.19789,-1.10218,-0.18887,-0.04292,0.04425
854,16.58878736995441,-0.01996,0.21535,-0.95083,0.01187,0.01106,-0.08883
855,16.608212179521104,-0.03106,0.11463,-1.00923,-0.18145,0.08739,0.12078
856,16.627636989087794,-0.00711,0.23846,-0.99996,-0.13047,0.03818,-0.07295
857,16.647061798654484,-0.01543,0.13946,-0.97522,0.2261,-0.05322,0.07702
858,16.666486608221177,-0.01091,0.13858,-1.02423,-0.047,0.04845,0.0408
859,16.685911417787867,-0.0037,0.21816,-1.01118,-0.07887,0.04463,-0.07043
860,16.705336227354557,-0.00452,0.18553,-0.99423,0.29564,-0.03574,0.02537
861,16.72476103692125,-0.00506,0.11358,-1.01888,-0.19701,0.0526,0.0676
862,16.74418584648794,0.0169,0.21897,-1.03155,-0.18746,-0.03974,-0.05527
863,16.763610656054635,-0.00519,0.19606,-0.98398,0.03512,-0.0946,-0.0872
864,16.783035465621325,0.01122,0.15233,-0.94624,0.26119,-0.14688,0.00353
865,16.802460275188015,-0.01055,0.1423,-1.06868,0.10463,-0.00811,0.01907
866,16.821885084754708,-0.04215,0.1341,-0.97777,-0.11915,0.10603,0.03597
867,16.841309894321398,-0.02763,0.12893,-1.00764,-0.26194,0.15345,0.0963
868,16.86073470388809,0.00065,0.17115,-0.96232,-0.18703,-0.02881,-0.02398
869,16.88015951345478,-0.03141,0.17929,-1.02071,-0.17253,-0.05386,-0.04515
870,16.89958432302147,-0.03465,0.15541,-1.0708,0.04294,-0.06587,0.00104
871,16.919009132588165,-0.00525,0.18101,-0.94611,0.02983,0.01199,-0.00127
872,16.938433942154855,0.00155,0.19345,-0.99662,-0.16682,-0.06907,-0.03639
873,16.957858751721545,-3e-05,0.17928,-0.9931,-0.28788,-0.02364,-0.06906
874,16.97728356128824,-0.00315,0.12623,-1.06102,-0.18026,0.01045,-0.02492
875,16.99670837085493,-0.01237,0.0779,-0.95486,-0.30297,0.09672,0.01399
876,17.01613318042162,0.0124,0.11148,-1.03497,-0.49392,-0.05572,-0.00297
877,17.035557989988312,0.02039,0.08202,-1.02014,-0.52963,-0.03308,-0.076
878,17.054982799555003,0.00554,-0.03283,-1.00595,-0.48127,0.03772,0.03661
879,17.074407609121696,-0.01131,-0.14449,-1.04627,-0.31085,0.01597,0.06799
880,17.093832418688386,0.0214,-0.15766,-1.02586,-0.09257,-0.16631,-0.05368
881,17.113257228255076,-0.00415,-0.21575,-0.98331,-0.0241,-0.12177,-0.0792
882,17.13268203782177,-0.01401,-0.26815,-1.00797,-0.09707,0.11942,-0.10123
883,17.15210684738846,-0.03266,-0.35558,-1.01978,-0.00386,0.10204,0.03721
884,17.171531656955153,-0.02426,-0.26986,-0.94404,-0.24217,0.02409,-0.03417
885,17.190956466521843,-0.02924,-0.2798,-1.0113,-0.33589,0.1174,0.10585
886,17.210381276088533,-0.00331,-0.20358,-1.11438,-0.11462,-0.04164,0.11139
887,17.229806085655227,0.00578,-0.07869,-0.91187,-0.08595,0.01466,0.02054
888,17.249230895221917,0.01838,-0.04574,-1.00635,-0.2044,0.22212,0.02392
889,17.268655704788607,0.01185,-0.11322,-1.12429,0.03361,-0.10636,0.0843
890,17.2880805143553,0.00597,-0.06904,-0.8688,-0.09353,-0.00565,0.00129
891,17.30750532392199,-0.00045,-0.07937,-1.09247,-0.17999,0.12791,0.0142
892,17.32693013348868,0.01853,-0.08534,-0.99036,0.02024,-0.05422,-0.02572
893,17.346354943055374,0.01347,-0.1695,-1.12657,-0.12104,-0.08746,-0.00644
894,17.365779752622064,-0.04566,-0.15555,-0.92142,-0.19529,-0.01219,-0.00699
895,17.385204562188758,-0.01496,-0.22873,-1.06058,-0.01755,-0.01383,0.06796
896,17.404629371755448,-0.03509,-0.14294,-0.96713,-0.12778,-0.04213,0.04125
897,17.424054181322138,0.02407,-0.10195,-1.06132,-0.04011,-0.09306,0.0124
898,17.44347899088883,-0.02946,-0.12429,-0.94827,-0.12042,0.01124,0.02757
899,17.46290380045552,0.02038,-0.07397,-1.0268,-0.02162,0.13406,-0.02713
900,17.482328610022215,-0.02029,-0.11117,-1.04859,0.00015,-0.05327,0.08558
901,17.501753419588905,0.03826,0.0289,-0.90704,0.04857,0.04025,-0.07968
902,17.521178229155595,0.00665,-0.1135,-1.14137,0.05832,-0.0684,0.07373
903,17.54060303872229,-0.02899,-0.07582,-0.84747,0.06146,0.02173,0.05177
904,17.56002784828898,0.02942,-0.05717,-1.12,0.10146,0.00888,-0.05098
905,17.57945265785567,-0.02325,-0.12709,-0.98615,-0.15513,0.0086,0.0015
906,17.598877467422362,-0.00815,-0.06304,-0.88783,-0.02908,-0.0193,-0.10065
907,17.618302276989052,-0.01108,-0.19208,-1.14102,0.01462,-0.00196,0.04121
908,17.637727086555742,-0.06433,-0.18859,-0.97144,0.00241,-0.02144,0.08843
909,17.657151896122436,0.0268,-0.03055,-0.90446,-0.07102,0.0031,-0.11104
910,17.676576705689126,-0.00263,-0.05865,-1.06945,-0.0193,0.08526,-0.01737
911,17.69600151525582,-0.05649,-0.17115,-1.06607,0.02371,-0.03226,0.13348
912,17.71542632482251,-0.01521,-0.06202,-0.9648,0.02771,-0.03097,0.02389
913,17.7348511343892,0.03894,-0.01407,-0.91018,-0.15892,0.1161,0.00025
914,17.754275943955893,0.00481,-0.01977,-1.05006,-0.08817,0.05699,-0.04312
915,17.773700753522583,-0.00642,-0.1289,-1.0794,-0.00776,-0.02855,-0.02179
916,17.793125563089276,-0.00549,-0.12056,-0.99181,-0.03927,-0.02715,-0.02704
917,17.812550372655966,0.02063,-0.1066,-0.95165,0.01106,0.02368,-0.03904
918,17.831975182222656,-0.01233,-0.08441,-0.96223,-0.08669,0.02101,0.04319
919,17.85139999178935,-0.03599,-0.06119,-1.03579,0.01901,0.00661,0.07666
920,17.87082480135604,-0.02771,-0.10013,-1.01835,0.02012,-0.01528,0.12528
921,17.89024961092273,-0.05088,-0.07284,-1.02788,-0.07622,-0.02995,0.16055
922,17.909674420489424,-0.03955,-0.02814,-1.02135,-0.0149,-0.02712,0.09418
923,17.929099230056114,-0.00074,0.06227,-0.96184,0.00908,0.02174,-0.04157
924,17.948524039622804,0.02579,0.11479,-0.98258,-0.025,0.02409,-0.12731
925,17.967948849189497,0.00976,0.09762,-0.98144,-0.13696,0.05172,-0.16711
926,17.987373658756187,0.00567,0.05925,-1.00678,-0.02533,0.00844,-0.14845
927,18.00679846832288,-0.00107,-0.06135,-1.03292,0.05791,-0.0107,-0.03347
928,18.02622327788957,-0.03866,-0.19064,-1.03702,0.04554,-0.03128,0.1658
929,18.04564808745626,-0.00219,-0.12183,-1.03385,-0.07157,-0.04722,0.14969
930,18.065072897022954,-0.00288,-0.06569,-0.96729,0.00689,-0.01305,0.16765
931,18.084497706589644,-0.02354,-0.08173,-0.98196,0.03544,0.00254,0.23438
932,18.103922516156338,-0.00103,-0.04359,-1.01143,0.01105,0.01099,0.2143
933,18.123347325723028,0.00736,-0.05488,-0.99915,0.01355,0.01175,0.23569
934,18.142772135289718,-0.01272,-0.05391,-1.00419,-0.01154,0.00403,0.27224
935,18.16219694485641,-0.01015,-0.04453,-1.00284,0.00515,0.01026,0.26866
936,18.1816217544231,-0.00954,-0.04148,-1.00108,-0.01116,0.00931,0.25425
937,18.20104656398979,0.00038,-0.03438,-1.00179,-0.00664,0.00994,0.2277
938,18.220471373556485,-0.00032,-0.04964,-1.00349,-0.00378,0.01307,0.2101
939,18.239896183123175,0.00778,-0.04891,-1.00334,-0.01057,0.0177,0.1772
940,18.259320992689865,0.01193,-0.04888,-1.00139,-0.00884,0.00697,0.14136
941,18.27874580225656,0.01618,-0.03904,-1.00315,-0.01052,0.00245,0.1028
942,18.29817061182325,0.01658,-0.00838,-1.00375,-0.01163,0.00361,0.04857
943,18.317595421389942,0.01676,0.02972,-1.00203,-0.01093,0.00471,-0.01271
944,18.337020230956632,0.00355,0.00971,-1.00255,-0.01103,0.00574,-0.01001
945,18.356445040523322,-0.00684,-0.00551,-1.00223,-0.01344,0.01034,0.01264
946,18.375869850090016,-0.00496,0.00727,-1.00205,-0.00959,0.01059,0.01698
947,18.395294659656706,-0.00234,0.01664,-1.00349,-0.01259,0.0106,-0.00451
948,18.4147194692234,-0.00906,0.00134,-1.00899,-0.01415,0.01301,0.00554
949,18.43414427879009,-0.03146,-0.00242,-1.00101,-0.01226,0.00858,0.0281
950,18.45356908835678,-0.03554,-0.00836,-1.00238,-0.00539,0.00205,0.03851
951,18.472993897923473,-0.03909,0.00578,-1.00993,-0.01462,0.00732,0.04553
952,18.492418707490163,-0.03706,0.01569,-1.00135,-0.00951,0.0097,0.03623
953,18.511843517056853,-0.03492,0.01777,-1.00155,-0.01535,0.01016,0.02675
954,18.531268326623547,-0.03469,0.01807,-1.00264,-0.00688,0.00538,0.01984
955,18.550693136190237,-0.03489,0.02024,-1.00007,-0.00962,0.0087,0.00666
956,18.570117945756927,-0.03663,0.01699,-1.00011,-0.00219,0.00553,0.00424
957,18.58954275532362,-0.03831,0.00551,-1.00276,-0.0026,0.00746,0.00471
958,18.60896756489031,-0.03598,0.00605,-1.00313,-0.00226,0.00725,0.00616
959,18.628392374457004,-0.03278,0.01118,-1.00072,0.00168,0.00616,0.00451
960,18.647817184023694,-0.02981,0.00975,-1.00202,-4e-05,0.00492,0.00414
961,18.667241993590384,-0.02784,0.00841,-1.00209,0.00295,0.00937,0.00809
962,18.686666803157078,-0.02594,0.01032,-1.00031,0.00305,0.00812,0.0047
963,18.706091612723768,-0.02632,0.00831,-1.00171,0.00314,0.0089,0.00578
964,18.72551642229046,-0.0219,0.00315,-1.00352,0.00346,0.00552,0.00624
965,18.74494123185715,-0.01608,0.0,-1.00158,0.00131,0.00913,0.01267
966,18.76436604142384,-0.00602,0.0093,-1.00386,0.0007,0.00664,0.00759
967,18.783790850990535,0.00321,0.01319,-1.0057,-0.00307,0.00456,0.00152
968,18.803215660557225,0.00695,0.00581,-1.00442,-0.00637,0.00409,0.0074
969,18.822640470123915,0.00818,0.00238,-1.00321,-0.00553,0.00665,0.01244
970,18.84206527969061,0.00917,0.01111,-1.00188,-0.00578,0.0063,0.0033
971,18.8614900892573,0.00993,0.00739,-1.00245,-0.00669,0.00547,0.00602
972,18.88091489882399,0.01116,0.00349,-1.00162,-0.00683,0.00665,0.00875
973,18.900339708390682,0.0099,0.00793,-1.00389,-0.00725,0.00577,0.0071
974,18.919764517957372,0.00641,0.00539,-1.00189,-0.00777,0.00577,0.0078
975,18.939189327524065,0.00311,0.00789,-1.00258,-0.00769,0.00914,0.00703
976,18.958614137090755,0.00137,0.00736,-1.00237,-0.00402,0.00878,0.00805
977,18.978038946657446,0.00137,0.00736,-1.00237,-0.00402,0.00878,0.00805
978,18.99746375622414,-0.0026,0.0082,-1.00171,-0.00614,0.00778,0.00332
979,19.01688856579083,-0.00986,0.01122,-1.00374,-0.00958,-0.00337,-0.00045
980,19.036313375357523,-0.09313,0.05295,-1.01328,-0.00726,-0.02917,-0.05914
981,19.055738184924213,-0.23956,0.00687,-1.0353,0.00603,-0.04738,0.0699
982,19.075162994490903,-0.31165,-0.02802,-0.99104,0.07109,-0.04839,0.10607
983,19.094587804057596,-0.30216,-0.0108,-0.94416,-0.08646,0.10398,0.15532
984,19.114012613624286,-0.31366,0.07687,-1.07379,-0.03372,-0.12421,-0.08398
985,19.133437423190976,-0.3159,0.02284,-0.99154,-0.0147,0.02742,-0.01944
986,19.15286223275767,-0.30527,-0.02535,-0.8727,-0.10067,0.20162,-0.01108
987,19.17228704232436,-0.23408,-0.02178,-0.99105,0.00702,0.07445,-0.02872
988,19.19171185189105,-0.17379,-0.03486,-1.14507,0.02269,-0.02813,0.02689
989,19.211136661457743,-0.1321,0.01943,-0.92137,-0.07354,0.06558,0.02591
990,19.230561471024433,-0.05777,0.006,-0.97444,-0.05986,0.07376,-0.01699
991,19.249986280591127,-0.07331,0.03767,-1.11392,0.02913,-0.14866,-0.02753
992,19.269411090157817,-0.0841,0.05523,-0.93864,-0.07735,-0.00677,-0.0742
993,19.288835899724507,-0.08627,0.00179,-1.01165,0.06938,-0.02673,-0.037
994,19.3082607092912,-0.19627,-0.05678,-1.05995,0.00837,-0.09706,0.08808
995,19.32768551885789,-0.19273,0.07374,-0.96473,-0.0009,0.10134,-0.09455
996,19.347110328424584,-0.21288,0.00703,-1.01039,0.13826,-0.04015,-0.00308
997,19.366535137991274,-0.29355,-0.04056,-0.95525,0.1245,0.11072,0.09308
998,19.385959947557964,-0.24599,0.02804,-1.03723,0.01557,0.01153,-0.00568
999,19.405384757124658,-0.24906,0.0365,-0.95372,0.10968,0.18605,-0.01289
1000,19.424809566691348,-0.25241,-0.05302,-0.99342,-0.07338,0.00133,0.11485
1001,19.444234376258038,-0.20882,0.02881,-1.0057,-0.13276,-0.04004,-0.03512
1002,19.46365918582473,-0.15288,0.03898,-0.98801,0.17119,-0.0267,-0.07073
1003,19.48308399539142,-0.16285,-0.0683,-1.05153,-0.1968,0.02248,0.07447
1004,19.50250880495811,-0.14325,-0.00241,-0.98891,-0.21884,-0.05466,0.0042
1005,19.521933614524805,-0.1492,0.02938,-0.97714,0.21664,0.05793,-0.01756
1006,19.541358424091495,-0.14932,-0.01861,-1.02434,-0.1642,0.18033,0.03923
1007,19.56078323365819,-0.15672,0.01099,-1.01447,-0.20875,-0.05099,0.03058
1008,19.58020804322488,-0.15048,-0.00037,-1.00432,0.03118,-0.19298,0.03037
1009,19.59963285279157,-0.14989,0.03134,-0.96153,0.21804,0.20713,-0.01103
1010,19.619057662358262,-0.17859,0.0055,-0.98119,0.2508,0.1335,0.02353
1011,19.638482471924952,-0.19322,-0.01361,-1.09008,0.45814,-0.19272,0.04813
1012,19.657907281491646,-0.19101,-0.01922,-0.99407,-0.00196,-0.05348,0.05815
1013,19.677332091058336,-0.20949,0.01522,-1.00201,-0.32642,-0.06539,-0.01287
1014,19.696756900625026,-0.21615,0.02305,-1.06125,-0.35234,-0.10636,0.00256
1015,19.71618171019172,-0.20144,-0.01524,-1.02779,-0.25575,-0.14928,-0.01492
1016,19.73560651975841,-0.13279,0.03372,-1.09402,-0.28386,-0.2356,-0.05443
1017,19.7550313293251,-0.10749,0.0085,-1.01402,-0.26788,-0.14339,0.01195
1018,19.774456138891793,-0.10351,-0.05197,-1.03381,-0.34203,0.20364,0.03671
1019,19.793880948458483,-0.09036,-0.0431,-1.01146,-0.50856,0.08191,0.03418
1020,19.813305758025173,-0.07012,-0.02158,-1.0735,-0.49677,0.08817,-0.01788
1021,19.832730567591867,-0.00423,-0.00055,-0.97563,-0.45034,0.16685,-0.01787
1022,19.852155377158557,0.09099,-0.02697,-0.99315,-0.3964,0.31889,0.02072
1023,19.87158018672525,0.23241,-0.02508,-1.01583,-0.37988,0.29471,0.08145
1024,19.89100499629194,0.31708,-0.01045,-1.05747,-0.31265,0.07169,0.07498
1025,19.91042980585863,0.30704,-0.02111,-1.06212,-0.15111,0.02343,0.09391
1026,19.929854615425324,0.31234,0.01569,-1.00181,0.06051,-0.20308,0.06111
1027,19.949279424992014,0.3208,0.1111,-0.91941,0.38758,-0.00562,-0.01462
1028,19.968704234558707,0.27856,0.03125,-1.00526,-0.01576,0.07563,-0.07538
1029,19.988129044125397,0.22451,-0.00489,-1.03793,-0.11924,0.01298,-0.01139
1030,20.007553853692087,0.18442,0.04235,-0.9938,-0.00707,0.1342,-0.0307
1031,20.02697866325878,0.12057,0.01749,-0.98079,0.27113,-0.19027,-0.09257
1032,20.04640347282547,0.05496,-0.03035,-1.02292,-0.29848,0.06631,-0.02821
1033,20.06582828239216,0.06295,0.00663,-0.98789,-0.08152,0.14245,-0.01115
1034,20.085253091958855,0.06568,0.00361,-0.99356,0.12489,-0.05519,-0.00503
1035,20.104677901525545,0.06642,-0.02725,-1.06112,-0.4397,0.00945,-0.00441
1036,20.124102711092235,0.17597,0.03024,-1.03799,0.09479,0.16759,0.03435
1037,20.143527520658928,0.19092,-0.01562,-0.90236,0.44714,-0.07014,0.02025
1038,20.162952330225618,0.22352,0.03248,-1.08244,-0.07972,-0.06856,0.00127
1039,20.18237713979231,0.27394,0.0935,-0.94878,-0.01645,-0.0435,-0.04257
1040,20.201801949359,0.25812,0.08201,-0.95022,0.10261,-0.16075,-0.04955
1041,20.22122675892569,0.12107,0.04456,-0.89136,-0.19143,0.02686,-0.04367
1042,20.240651568492385,0.05034,0.00478,-1.11501,0.04986,0.00281,0.03625
1043,20.260076378059075,-0.00807,-0.05236,-0.92299,-0.08892,-0.09053,-0.00023
1044,20.27950118762577,-0.02658,0.08554,-1.0867,-0.06295,-0.00968,-0.01603
1045,20.29892599719246,-0.03495,-0.03513,-0.95764,0.12983,-0.13136,0.00053
1046,20.31835080675915,-0.03638,-0.01021,-0.92383,-0.21237,0.12837,0.09383
1047,20.337775616325843,0.04134,0.01509,-1.08243,-0.01528,0.04928,0.04736
1048,20.357200425892533,0.11834,-0.02033,-0.9362,-0.00174,0.01004,-0.0056
1049,20.376625235459223,0.19925,0.09144,-1.06645,-0.11979,0.04524,0.01251
1050,20.396050045025916,0.19807,-0.06875,-0.9846,0.167,0.08752,0.10211
1051,20.415474854592606,0.24677,-0.02356,-0.96952,-0.00335,0.00896,0.05759
1052,20.434899664159296,0.29135,0.08935,-1.03597,-0.25939,0.01646,0.03472
1053,20.45432447372599,0.18751,-0.02328,-0.94513,0.06913,-0.00089,0.0859
1054,20.47374928329268,0.11622,0.03079,-1.02678,0.02895,-0.12419,-0.01699
1055,20.493174092859373,0.00343,0.02737,-1.05144,-0.04448,-0.05121,-0.0191
1056,20.512598902426063,-0.09083,-0.0176,-0.97626,-0.02921,-0.02274,-0.02059
1057,20.532023711992753,-0.15362,0.05366,-0.97085,-0.06045,0.0211,-0.13113
1058,20.551448521559447,-0.19563,0.01824,-1.0421,0.01226,-0.01967,-0.09546
1059,20.570873331126137,-0.20024,-0.06099,-0.97587,0.13304,-0.00843,-0.06245
1060,20.59029814069283,-0.14748,-0.03085,-1.01278,-0.01462,-0.00645,-0.00905
1061,20.60972295025952,-0.0724,0.02841,-0.98754,-0.1358,0.10094,-0.00225
1062,20.62914775982621,0.0554,0.02736,-0.96619,-0.06812,0.06337,0.0462
1063,20.648572569392904,0.14001,-0.01553,-1.01607,0.09946,0.06565,0.08346
1064,20.667997378959594,0.24125,-0.00726,-0.98546,0.00314,0.08323,0.09827
1065,20.687422188526284,0.30203,0.08439,-1.08123,-0.05212,0.02945,0.04755
1066,20.706846998092978,0.28325,0.04741,-0.97789,0.03502,-0.07617,-0.04422
1067,20.726271807659668,0.07782,0.03709,-0.98598,-0.05748,-0.12365,-0.04936
1068,20.745696617226358,-0.01074,0.05829,-1.00878,-0.08175,0.05303,-0.07688
1069,20.76512142679305,-0.0031,-0.02824,-1.00361,0.05379,-0.0027,0.00464
1070,20.78454623635974,-0.00256,2e-05,-1.01244,-0.01736,-0.02982,-0.01324
1071,20.803971045926435,0.02969,0.00465,-1.01106,0.00883,-0.02188,-0.00248
1072,20.823395855493125,-0.0047,-0.04223,-0.98584,0.02122,0.01458,0.05466
1073,20.842820665059815,-0.0105,0.01727,-0.99148,0.03679,0.00537,0.03042
1074,20.86224547462651,0.00466,0.00981,-1.00188,0.02436,0.00218,0.06933
1075,20.8816702841932,0.01544,0.01338,-1.01673,0.00415,0.00098,0.04537
1076,20.901095093759892,0.02339,0.04075,-1.01257,-0.01433,-0.00614,0.00911
1077,20.920519903326582,0.02058,0.01514,-0.99922,-0.00314,0.00034,0.01367
1078,20.939944712893272,0.01166,0.00778,-1.00242,-0.0053,-0.00531,0.01902
1079,20.959369522459966,0.00671,-0.00011,-1.00122,-0.00624,-0.00303,0.0285
1080,20.978794332026656,0.00348,0.01589,-1.00063,-0.01385,-0.00189,0.01789
1081,20.998219141593346,0.0076,0.01384,-1.00001,-0.01782,0.01312,0.00733
1082,21.01764395116004,0.01015,0.00808,-1.00391,-0.02515,0.01389,0.00915
1083,21.03706876072673,0.00957,0.01514,-1.00341,-0.02561,0.01523,0.00257
1084,21.05649357029342,0.00587,0.0185,-0.99922,-0.02521,0.0183,-0.00131
1085,21.075918379860113,0.00083,0.02,-1.00167,-0.0323,0.01906,-0.01954
1086,21.095343189426803,-0.00374,0.02296,-1.00159,-0.03785,0.02115,-0.03183
1087,21.114767998993496,-0.00387,-0.00403,-0.99896,0.0033,0.01489,0.00213
1088,21.134192808560186,0.00566,-0.02341,-1.01313,-0.00939,0.00221,0.02354
1089,21.153617618126876,0.0152,0.00181,-1.00836,-0.00798,0.00606,0.01796
1090,21.17304242769357,0.01474,0.03246,-0.99923,-0.0099,0.00216,0.0062
1091,21.19246723726026,0.01146,0.02772,-1.001,-0.00293,0.00678,0.00013
1092,21.211892046826954,0.01054,0.00504,-1.00316,-0.00568,0.00253,0.00063
1093,21.231316856393644,0.01099,0.00464,-1.00258,-0.00524,0.00641,0.01052
1094,21.250741665960334,0.01028,0.01524,-1.00285,-0.00645,0.00877,0.00751
1095,21.270166475527027,0.01194,0.02029,-1.00278,-0.00743,0.00804,0.00134
1096,21.289591285093717,0.00978,0.00967,-1.00163,-0.00485,0.00636,0.00357
1097,21.309016094660407,0.00428,0.00786,-1.00117,-0.00657,0.009,0.0097
1098,21.3284409042271,0.00205,0.01565,-1.00225,-0.00454,0.00871,0.00566
1099,21.34786571379379,0.00016,0.01782,-1.00325,-0.00564,0.00849,0.00149
1100,21.36729052336048,-0.00151,0.00801,-1.00202,-0.00596,0.01084,0.00981
1101,21.386715332927174,-0.0028,0.00956,-1.00334,-0.00701,0.00754,0.00554
1102,21.406140142493864,-0.00306,0.01529,-1.00249,-0.00595,0.01033,0.00588
1103,21.425564952060558,-0.00154,0.01549,-1.0025,-0.00403,0.00898,0.00555
1104,21.444989761627248,-0.00308,0.01486,-1.00384,-0.00251,0.00662,0.00369
1105,21.464414571193938,-0.00956,0.02036,-1.00249,-0.00191,0.00261,-0.00842
1106,21.48383938076063,-0.01838,0.02268,-1.00121,-0.00047,0.00252,-0.01471
1107,21.50326419032732,-0.02307,0.02493,-1.00311,0.00307,0.00446,-0.0272
1108,21.522688999894015,-0.02391,0.02904,-1.00184,0.0014,0.00675,-0.04177
1109,21.542113809460705,-0.02371,0.03041,-1.00069,-0.00056,0.01031,-0.05959
1110,21.561538619027395,-0.02047,0.02919,-1.0031,-0.00113,0.01112,-0.07116
1111,21.58096342859409,-0.01985,0.0179,-1.0033,-0.00293,0.0108,-0.07273
1112,21.60038823816078,-0.01662,-0.00143,-1.00452,-0.00501,0.00861,-0.06049
1113,21.61981304772747,-0.01296,-0.01474,-1.00369,-0.00113,0.00732,-0.03504
1114,21.639237857294162,-0.01118,-0.01399,-1.00513,-0.00392,0.00574,-0.01169
1115,21.658662666860852,-0.01385,0.01068,-1.00195,-0.0034,0.00378,0.00108
1116,21.678087476427542,-0.01632,0.01916,-1.00178,-0.00224,0.00282,-0.00619
1117,21.697512285994236,-0.0206,0.02438,-1.0065,-0.01473,-0.01572,-0.02022
1118,21.716937095560926,-0.12112,0.00386,-1.01284,-0.03219,-0.01131,0.03819
1119,21.73636190512762,-0.15154,-0.06992,-0.97461,0.01511,0.04647,-0.00271
1120,21.75578671469431,-0.12432,-0.13131,-1.00367,0.01023,0.01687,-0.02355
1121,21.775211524261,-0.06235,-0.23898,-1.01687,0.0853,0.00175,-0.02565
1122,21.794636333827693,-0.02959,-0.22534,-0.8768,-0.04863,0.10788,-0.07181
1123,21.814061143394383,-0.07759,-0.21226,-1.09054,-0.29377,-0.00944,-0.05623
1124,21.833485952961077,-0.02437,-0.30971,-1.09319,0.03074,-0.07184,0.12594
1125,21.852910762527767,0.0577,-0.19856,-0.77928,-0.15275,0.33519,0.07447
1126,21.872335572094457,0.06931,-0.08708,-1.15496,-0.23299,-0.06257,0.0819
1127,21.89176038166115,0.06588,-0.03136,-0.89113,0.08563,0.06909,-0.08717
1128,21.91118519122784,0.02457,-0.08586,-1.00633,-0.30601,0.02687,-0.00271
1129,21.93061000079453,0.01455,-0.15044,-1.1057,0.07032,-0.1003,-0.00214
1130,21.950034810361224,0.01742,-0.17635,-0.90502,-0.0152,-0.00533,-0.04197
1131,21.969459619927914,-0.04275,-0.11009,-1.05901,-0.21842,-0.05954,-0.06959
1132,21.988884429494604,-0.03576,-0.21571,-1.02559,0.00094,-0.03121,-0.03633
1133,22.008309239061298,-0.04373,-0.2034,-0.97705,-0.17283,0.00923,0.01701
1134,22.027734048627988,-0.04088,-0.20353,-1.02665,-0.0695,0.07498,0.04634
1135,22.04715885819468,-0.01426,-0.16478,-0.97762,0.22895,0.08039,0.11902
1136,22.06658366776137,-0.07077,-0.22886,-0.98258,0.03983,0.01256,0.26805
1137,22.08600847732806,0.07077,-0.01821,-1.02969,-0.09209,-0.16324,-0.06658
1138,22.105433286894755,0.05313,-0.09061,-1.02789,-0.01928,0.0021,-0.05703
1139,22.124858096461445,0.01332,-0.16467,-0.99444,-0.15923,0.11631,-0.02496
1140,22.14428290602814,0.00922,-0.1216,-1.03636,0.13859,-0.20856,-0.06286
1141,22.16370771559483,-0.01567,-0.19753,-0.98765,0.17903,-0.06776,-0.02637
1142,22.18313252516152,-0.05971,-0.22029,-0.98027,0.03918,0.09474,0.08347
1143,22.202557334728212,-0.0167,-0.16138,-1.02459,-0.28092,0.17656,-0.05908
1144,22.221982144294902,-0.01575,-0.14156,-0.98873,-0.32256,0.03693,0.01447
1145,22.241406953861592,-0.02762,-0.13423,-0.98045,0.14058,0.00407,-0.0021
1146,22.260831763428286,-0.02361,-0.07755,-0.98708,0.42876,0.02085,0.03906
1147,22.280256572994976,-0.02125,-0.13103,-0.98368,0.24794,0.07845,0.01789
1148,22.299681382561666,-0.03504,-0.17218,-1.02763,-0.10405,0.06598,0.08907
1149,22.31910619212836,-0.01613,-0.11783,-1.06323,-0.25162,-0.10614,-0.01471
1150,22.33853100169505,-0.01123,-0.18333,-1.00666,-0.27075,-0.12341,0.04288
1151,22.357955811261743,-0.01788,-0.14642,-1.10112,-0.47295,-0.15548,-0.00343
1152,22.377380620828433,-0.03716,-0.14735,-1.03619,-0.50489,-0.05958,0.04934
1153,22.396805430395123,-0.02313,-0.14526,-1.01859,-0.52651,0.12802,-0.02107
1154,22.416230239961816,-0.02542,-0.13767,-1.02864,-0.61128,0.20382,0.02365
1155,22.435655049528506,0.02127,-0.11429,-1.03811,-0.34921,0.09388,-0.00374
1156,22.4550798590952,0.02228,-0.12051,-0.99253,0.04633,0.05067,0.08162
1157,22.47450466866189,0.02586,-0.06592,-0.97983,0.14952,0.12074,0.02746
1158,22.49392947822858,0.00955,-0.0444,-0.97352,0.29555,0.08273,0.07115
1159,22.513354287795273,0.01857,0.06179,-0.98234,0.21096,0.09451,0.02688
1160,22.532779097361963,-0.00198,0.15542,-1.01082,0.145,0.11701,0.15109
1161,22.552203906928654,-0.0352,0.24581,-0.98657,0.09409,0.09506,0.08197
1162,22.571628716495347,0.00946,0.35833,-1.0439,-0.03873,-0.0536,0.00271
1163,22.591053526062037,-0.00786,0.33935,-1.02172,0.08226,-0.1343,0.07084
1164,22.610478335628727,-0.01939,0.34347,-0.98673,0.11678,0.1074,0.01738
1165,22.62990314519542,0.01097,0.31759,-1.01388,-0.15611,0.19038,-0.08992
1166,22.64932795476211,0.00551,0.20237,-0.9658,0.05529,-0.18883,0.00668
1167,22.668752764328804,-0.02004,0.14544,-0.95842,0.16792,0.09302,0.01277
1168,22.688177573895494,-0.01131,0.13644,-1.10574,-0.20642,0.15311,-0.03108
1169,22.707602383462184,0.01326,0.07122,-0.89471,-0.04959,-0.04229,0.00186
1170,22.727027193028878,-0.01195,0.08531,-1.03487,0.09269,0.09757,0.01076
1171,22.746452002595568,0.01013,0.08934,-1.05971,0.01307,-0.0837,0.01306
1172,22.76587681216226,0.00031,0.13409,-0.90448,-0.06935,-0.06469,0.00425
1173,22.78530162172895,-0.0077,0.18019,-1.09076,-0.14181,0.15099,-0.01622
1174,22.80472643129564,0.01307,0.17912,-0.92072,-0.07859,-0.22646,0.0209
1175,22.824151240862335,-0.02039,0.2286,-1.1054,-0.11329,0.06887,-0.03883
1176,22.843576050429025,0.00861,0.1445,-0.89067,0.01027,0.04377,0.08135
1177,22.863000859995715,-0.02179,0.22278,-1.09561,-0.05575,0.01623,-0.02233
1178,22.88242566956241,0.01367,0.13696,-0.94016,-0.08966,-0.0746,0.06507
1179,22.9018504791291,-0.01016,0.17085,-1.1328,-0.16063,-0.05083,-0.04944
1180,22.92127528869579,0.0131,0.08911,-0.89117,-0.05655,-0.06462,0.02072
1181,22.940700098262482,0.01257,0.1344,-1.14093,0.12782,-0.26463,-0.06717
1182,22.960124907829172,-0.01273,0.08336,-0.87347,0.0721,0.06807,-0.03025
1183,22.979549717395866,-0.00651,0.00516,-1.05597,0.03953,0.05168,0.0726
1184,22.998974526962556,-0.03277,0.10366,-1.01913,0.00166,0.04789,-0.00611
1185,23.018399336529246,0.00641,0.04955,-0.89887,-0.04685,0.02649,0.04154
1186,23.03782414609594,0.00298,0.17921,-1.17677,-0.07506,-0.14498,-0.03149
1187,23.05724895566263,-0.02863,0.15995,-0.89929,0.06914,0.02178,-0.00754
1188,23.076673765229323,0.00845,0.08248,-0.91676,0.02291,0.04809,0.06631
1189,23.096098574796013,0.00255,0.23277,-1.19658,-0.03032,-0.16153,-0.03573
1190,23.115523384362703,-0.01134,0.18152,-0.92477,0.00968,0.01609,-0.07825
1191,23.134948193929397,0.00423,0.033,-0.91766,-0.06104,-0.05054,0.11426
1192,23.154373003496087,-0.03836,0.0742,-1.11343,-0.08735,-0.0373,0.07176
1193,23.173797813062777,0.01085,0.19578,-1.05417,0.01397,-0.02142,-0.14823
1194,23.19322262262947,-0.01117,0.06789,-0.89799,0.00647,0.01041,0.00428
1195,23.21264743219616,-0.04331,0.05872,-1.0049,-0.04611,0.00401,0.00904
1196,23.23207224176285,-0.03784,0.09381,-1.02419,-0.073,0.06507,-0.00914
1197,23.251497051329544,-0.01271,0.1341,-1.05121,-0.02746,-0.01965,-0.02042
1198,23.270921860896234,-0.03497,0.11385,-0.9733,0.05791,-0.00876,0.00157
1199,23.290346670462927,-0.03046,0.04439,-0.96469,-0.07713,0.04713,0.09594
1200,23.309771480029617,-0.02335,0.03888,-0.97447,-0.00891,0.08131,0.16352
1201,23.329196289596307,-0.00443,0.00839,-1.03304,-0.02481,-0.04729,0.17749
1202,23.348621099163,0.04745,0.14346,-1.03635,-0.05579,-0.01991,0.01237
1203,23.36804590872969,0.06517,0.17904,-1.00804,-0.0347,0.03703,-0.15755
1204,23.387470718296385,0.02477,0.10557,-1.00378,0.03047,-0.02844,-0.14507
1205,23.406895527863075,-0.01169,0.00971,-0.99102,-0.03761,0.01866,-0.06473
1206,23.426320337429765,-0.00091,-0.02007,-0.99712,-0.04318,0.02095,-0.00071
1207,23.445745146996458,-0.02759,-0.05098,-1.00496,-0.01955,-0.04045,0.06876
1208,23.465169956563148,-0.04515,-0.02943,-0.96997,-0.00411,0.00529,0.06924
1209,23.484594766129838,-0.03959,0.0041,-1.01795,-0.01572,0.03386,0.0569
1210,23.50401957569653,-0.04473,0.10251,-1.0581,-0.00399,-0.02777,-0.03479
1211,23.523444385263222,-0.05249,0.1363,-0.99375,0.006,-0.01247,-0.08315
1212,23.542869194829912,0.00868,0.10915,-0.98664,-0.01775,0.02174,-0.11175
1213,23.562294004396605,0.00718,0.09907,-0.99587,-0.01878,0.01425,-0.11078
1214,23.581718813963295,-0.0126,0.08177,-0.99695,-0.00964,0.00752,-0.10721
1215,23.60114362352999,-0.00054,0.07986,-1.00283,-0.02223,-0.00249,-0.10797
1216,23.62056843309668,0.00453,0.07125,-1.00947,-0.01999,-0.00123,-0.15926
1217,23.63999324266337,-0.00111,0.08291,-1.00427,-0.0153,0.01089,-0.17542
1218,23.659418052230063,-0.00094,0.07997,-0.99739,-0.0087,0.01573,-0.20675
1219,23.678842861796753,-0.0004,0.07793,-0.99918,-0.00361,0.00683,-0.22195
1220,23.698267671363446,-0.00387,0.07042,-1.00133,-0.00133,0.01901,-0.21288
1221,23.717692480930136,-0.00774,0.06297,-0.99834,0.00377,0.01721,-0.19571
1222,23.737117290496826,-0.01813,0.01585,-0.99959,0.00902,0.01634,-0.12418
1223,23.75654210006352,-0.0202,-0.00672,-1.00676,-0.00646,0.01392,-0.05113
1224,23.77596690963021,-0.01848,0.01239,-1.00582,-0.00378,0.0104,0.00697
1225,23.7953917191969,-0.01498,0.0255,-1.0015,-0.00267,0.00988,0.02367
1226,23.814816528763593,-0.01333,0.01718,-1.00268,-0.00452,0.00778,0.02206
1227,23.834241338330283,-0.00938,0.0109,-1.00331,-0.0078,0.01492,0.01103
1228,23.853666147896973,-0.01281,0.01728,-1.00246,-0.00443,0.01058,0.00178
1229,23.873090957463667,-0.01493,0.02244,-1.00192,-0.00595,0.01004,0.00062
1230,23.892515767030357,-0.01522,0.01271,-1.00257,-0.00547,0.00738,0.00836
1231,23.91194057659705,-0.01555,0.01572,-1.00527,-0.00379,0.01216,0.00346
1232,23.93136538616374,-0.01609,0.01937,-1.003,-0.00706,0.00791,0.00166
1233,23.95079019573043,-0.01743,0.01609,-1.00275,-0.00734,0.00909,0.00633
1234,23.970215005297124,-0.01848,0.01246,-1.00319,-0.00624,0.00937,0.00737
1235,23.989639814863814,-0.01638,0.01932,-1.00037,-0.00679,0.00617,0.00124
1236,24.009064624430508,-0.01663,0.01668,-1.00216,-0.00638,0.00856,0.00415
1237,24.028489433997198,-0.01391,0.01334,-1.00259,-0.0051,0.00929,0.00626
1238,24.047914243563888,-0.01224,0.01707,-1.00268,-0.00376,0.00888,0.00386
1239,24.06733905313058,-0.01326,0.01893,-1.00363,-0.0022,0.00593,-0.00077
1240,24.08676386269727,-0.01821,0.01932,-1.00202,0.00144,0.00478,-0.0039
1241,24.10618867226396,-0.02347,0.02202,-1.00032,-0.00257,0.00717,-0.01156
1242,24.125613481830655,-0.02488,0.02464,-0.99967,-0.00517,0.00801,-0.01894
1243,24.145038291397345,-0.02546,0.02376,-1.00091,-0.00962,0.00853,-0.02544
1244,24.164463100964035,-0.02738,0.02108,-1.0052,-0.00879,0.0049,-0.02615
1245,24.18388791053073,-0.02786,0.01382,-1.0027,-0.0057,0.00927,-0.01972
1246,24.20331272009742,-0.02997,0.00226,-1.00345,-0.0042,0.00622,-0.00993
1247,24.222737529664112,-0.02814,0.00366,-1.0041,-0.00833,0.00776,0.00184
1248,24.242162339230802,-0.02906,0.00618,-1.00366,-0.00297,0.00662,0.01661
1249,24.261587148797492,-0.02255,0.02385,-1.00196,-0.00901,0.00684,0.00245
1250,24.281011958364186,-0.01676,0.01708,-1.00323,-0.00759,0.00915,0.00409
1251,24.300436767930876,-0.01509,0.01372,-1.00322,-0.00833,0.01052,0.00989
1252,24.31986157749757,-0.00986,0.01832,-1.0024,-0.00661,0.01065,0.01105
1253,24.33928638706426,-0.00337,0.01685,-1.0032,-0.00833,0.00697,0.00115
1254,24.35871119663095,-0.00151,0.01373,-1.00435,-0.01055,0.00856,0.006
1255,24.378136006197643,-0.00329,0.01766,-1.00477,-0.00745,0.00757,0.00865
1256,24.397560815764333,-0.00268,0.01806,-1.00336,-0.00415,0.00859,0.00527
1257,24.416985625331023,-0.00378,0.01647,-1.00218,-0.00466,0.00752,0.003
1258,24.436410434897716,-0.00724,0.01732,-1.00232,-0.00657,0.00579,0.00694
1259,24.455835244464406,-0.00996,0.01777,-1.00143,-0.00521,0.00515,0.00644
1260,24.475260054031097,-0.0125,0.01776,-1.00121,-0.00518,0.00713,0.00365
1261,24.49468486359779,-0.01782,0.01638,-1.00328,-0.00632,0.00661,0.00579
1262,24.51410967316448,-0.02686,0.01239,-1.0019,-0.00621,0.00139,0.01139
1263,24.533534482731174,-0.0071,0.01837,-0.9991,-0.00554,0.02695,-0.01122
1264,24.552959292297864,0.07049,0.00543,-0.96968,-0.06078,0.08878,-0.0027
1265,24.572384101864554,0.14928,0.0121,-1.02708,-0.0134,0.05281,-0.05513
1266,24.591808911431247,0.19642,-0.00584,-1.03667,0.01662,-0.01618,0.00709
1267,24.611233720997937,0.24364,0.00124,-1.00307,0.00559,-0.00598,0.06359
1268,24.63065853056463,0.28997,-0.00962,-0.96798,-0.00184,0.03176,0.11065
1269,24.65008334013132,0.35163,0.03088,-0.97056,-0.03127,0.02753,0.01376
1270,24.66950814969801,0.32894,0.04357,-1.01665,-0.01852,0.0131,0.05376
1271,24.688932959264704,0.23536,0.04947,-1.12038,-0.05794,-0.14434,-0.06471
1272,24.708357768831394,0.15968,0.04615,-0.92261,-0.04112,-0.04756,-0.02777
1273,24.727782578398084,0.1066,0.00903,-0.96523,0.02385,0.04111,-0.0372
1274,24.747207387964778,0.03166,0.01911,-1.07813,0.08808,-0.06465,-0.00055
1275,24.766632197531468,0.00259,0.00873,-0.96355,-0.0488,0.00777,0.02717
1276,24.786057007098158,0.05466,0.02041,-0.96521,-0.01314,0.12193,-0.04745
1277,24.80548181666485,0.02183,-0.02557,-1.075,-0.01053,-0.00175,0.05642
1278,24.82490662623154,0.10526,0.04262,-0.95165,-0.08062,-0.01111,0.00682
1279,24.844331435798235,0.18471,0.05301,-1.01548,0.16555,-0.01434,-0.07591
1280,24.863756245364925,0.15568,0.00319,-1.01071,-0.00933,0.10274,0.05035
1281,24.883181054931615,0.25461,-0.0139,-0.94954,-0.00853,0.14308,0.04523
1282,24.90260586449831,0.22131,0.04632,-1.042,0.01536,0.17851,0.02526
1283,24.922030674065,0.2758,0.01327,-0.99958,0.01724,0.03837,0.01793
1284,24.941455483631692,0.22274,0.05617,-0.93954,0.01017,0.10134,-0.02602
1285,24.960880293198382,0.21173,-0.00104,-1.07421,-0.27507,-0.0044,0.01569
1286,24.980305102765072,0.18738,0.01272,-0.9553,0.268,-0.14855,-0.00141
1287,24.999729912331766,0.13297,0.03006,-0.99279,0.05692,0.1201,-0.02634
1288,25.019154721898456,0.14521,0.00176,-1.06887,-0.3253,-0.01982,-0.02338
1289,25.038579531465146,0.1081,-0.00182,-0.9822,0.27282,-0.18737,0.02878
1290,25.05800434103184,0.07628,0.00595,-0.97238,0.09952,0.1165,0.03816
1291,25.07742915059853,0.06812,0.04561,-1.08096,0.07631,0.04735,0.0338
1292,25.09685396016522,0.09041,0.00851,-1.00599,-0.24176,-0.01667,-0.01622
1293,25.116278769731913,0.11586,-0.00278,-0.98108,0.25713,-0.31129,0.04136
1294,25.135703579298603,0.14419,0.03889,-1.02892,0.10396,0.03063,-0.00694
1295,25.155128388865297,0.18502,0.0037,-0.95657,0.24533,0.09911,0.02268
1296,25.174553198431987,0.19757,-0.01587,-0.98593,-0.01842,0.15791,0.03614
1297,25.193978007998677,0.20551,0.02963,-1.06559,-0.18015,0.08764,0.01178
1298,25.21340281756537,0.22631,0.03491,-1.04667,-0.41761,-0.11116,-0.00777
1299,25.23282762713206,0.18673,0.0302,-1.08401,-0.45021,-0.23134,0.02404
1300,25.252252436698754,0.14495,0.02582,-1.01053,-0.40244,-0.32364,0.01934
1301,25.271677246265444,0.12865,0.06514,-1.05586,-0.37044,-0.34128,-0.06162
1302,25.291102055832134,0.09536,0.05079,-1.05102,-0.22378,-0.30592,-0.03183
1303,25.310526865398828,0.06815,0.00684,-1.01566,0.04945,-0.35807,-0.05698
1304,25.329951674965518,0.03565,0.00339,-1.02312,0.03797,-0.37222,-0.067
1305,25.349376484532208,-0.01764,-0.00215,-1.05205,0.04708,-0.39051,-0.06795
1306,25.3688012940989,-0.06557,-0.05291,-1.01369,0.15417,-0.36182,0.03484
1307,25.38822610366559,-0.12703,-0.02089,-1.02484,0.17099,-0.24248,0.02242
1308,25.40765091323228,-0.21693,0.01335,-1.00467,0.06258,-0.08818,-0.00133
1309,25.427075722798975,-0.28285,0.02381,-0.94439,0.03979,-0.00692,-0.00474
1310,25.446500532365665,-0.3241,0.00524,-0.9538,-0.03513,0.26088,0.01527
1311,25.46592534193236,-0.30659,0.00702,-0.9493,-0.13807,0.13635,-0.0002
1312,25.48535015149905,-0.30123,-0.03345,-0.97683,0.0063,0.16029,0.14514
1313,25.50477496106574,-0.23533,0.01723,-1.02889,-0.06406,-0.17537,0.04433
1314,25.524199770632432,-0.16283,0.09195,-0.97257,-0.07154,0.04635,-0.06427
1315,25.543624580199122,-0.16602,0.03924,-1.01064,0.14694,0.12528,0.06399
1316,25.563049389765816,-0.09856,-0.00273,-1.10016,-0.06959,-0.1961,0.02036
1317,25.582474199332506,-0.08327,0.01754,-0.90507,-0.16919,0.07166,-0.01653
1318,25.601899008899196,-0.08327,0.01754,-0.90507,-0.16919,0.07166,-0.01653
1319,25.62132381846589,-0.05319,-0.01677,-0.95765,0.22143,-0.09739,0.0448
1320,25.64074862803258,-0.11867,-0.04377,-1.02304,0.22976,0.01486,0.09087
1321,25.66017343759927,-0.08786,0.06982,-0.97647,0.18241,-0.27524,-0.09597
1322,25.679598247165963,-0.17116,0.01353,-0.97818,0.09499,-0.05929,0.02301
1323,25.699023056732653,-0.17116,0.01353,-0.97818,0.09499,-0.05929,0.02301
1324,25.718447866299343,-0.22646,0.00191,-1.00267,0.08699,-0.1145,0.01793
1325,25.737872675866036,-0.1972,0.03065,-0.90325,0.03325,0.00975,-0.01369
1326,25.757297485432726,-0.2225,-0.00222,-1.08039,0.09626,0.06303,0.02342
1327,25.77672229499942,-0.17279,0.009,-0.90761,-0.05562,0.18144,0.02817
1328,25.79614710456611,-0.13355,-0.01691,-1.11523,-0.09509,-0.03987,0.05124
1329,25.8155719141328,-0.08232,0.04701,-0.94263,-0.01646,0.04664,-0.04557
1330,25.834996723699494,-0.03301,0.0181,-0.97631,0.03038,0.05423,0.03266
1331,25.854421533266184,-0.04977,0.01248,-1.06366,-0.07799,0.07215,0.0062
1332,25.873846342832877,-0.01518,0.0198,-0.95534,-0.00201,0.02841,-0.01697
1333,25.893271152399567,-0.03288,-0.03955,-1.03817,-0.02258,-0.05405,0.08419
1334,25.912695961966257,-0.09756,0.01179,-1.04755,-0.07681,-0.02441,0.02059
1335,25.93212077153295,-0.07468,0.07268,-0.88577,-0.00533,0.07808,-0.10365
1336,25.95154558109964,-0.13277,-0.01441,-1.06923,-0.13046,-0.0226,0.0371
1337,25.97097039066633,-0.21025,-0.03117,-1.07549,0.00268,-0.0555,-0.01575
1338,25.990395200233024,-0.16398,0.04822,-0.88826,0.01494,0.05875,-0.05982
1339,26.009820009799714,-0.16496,0.02696,-0.98128,-0.01833,0.04581,0.01812
1340,26.029244819366404,-0.18193,-0.01841,-1.0794,-0.06198,-0.01759,0.04998
1341,26.048669628933098,-0.13419,-0.01399,-1.00984,0.0201,-0.01647,-0.00072
1342,26.068094438499788,-0.04673,0.04953,-0.94677,0.03637,0.02654,-0.07772
1343,26.08751924806648,-0.01067,-0.03562,-0.97582,0.03551,0.03269,0.10721
1344,26.10694405763317,0.02608,0.00562,-1.02512,-0.01453,0.05136,0.02209
1345,26.12636886719986,0.04783,0.035,-1.05982,-0.01587,-0.04031,-0.02446
1346,26.145793676766555,-0.03788,-0.01553,-1.03644,-0.01495,-0.06737,0.03559
1347,26.165218486333245,-0.03399,0.04154,-0.95454,0.04432,-0.01702,-0.04753
1348,26.18464329589994,-0.08244,0.00927,-0.95572,0.0266,0.00446,0.05486
1349,26.20406810546663,-0.1468,0.02741,-1.01105,-0.01206,0.01185,-0.0347
1350,26.22349291503332,-0.17731,-0.00251,-1.0,-0.00554,0.00938,-0.01482
1351,26.242917724600012,-0.19458,-0.00729,-1.03737,-0.04201,-0.0073,-0.00503
1352,26.262342534166702,-0.15408,0.02702,-0.988,-0.03362,0.02822,-0.0524
1353,26.281767343733392,-0.08843,-0.02001,-0.98898,0.02859,0.00963,0.04919
1354,26.301192153300086,-0.0206,0.01869,-0.99988,0.03296,0.00059,0.0159
1355,26.320616962866776,0.04153,0.02091,-0.98347,-0.02167,0.04173,0.04741
1356,26.340041772433466,0.07739,-0.01872,-1.0103,-0.03294,0.01487,0.08363
1357,26.35946658200016,0.09601,0.00773,-1.01888,0.0062,0.01542,0.06846
1358,26.37889139156685,0.10091,0.04349,-0.99633,-0.00806,0.00302,0.03012
1359,26.398316201133543,0.07207,0.03372,-0.9942,-0.0127,0.02649,-0.0091
1360,26.417741010700233,0.00789,-0.0009,-1.00875,-0.03588,0.01459,-0.00629
1361,26.437165820266923,-0.06335,-0.00134,-1.00192,-0.00829,0.025,0.00036
1362,26.456590629833617,-0.04175,-0.01459,-1.0154,-0.04051,0.01762,0.0509
1363,26.476015439400307,-0.04063,-0.01236,-1.02166,-0.04202,-0.00289,0.04832
1364,26.495440248967,-0.0344,0.06243,-1.01285,0.01232,-0.0084,-0.02593
1365,26.51486505853369,-0.02482,0.06195,-0.9778,0.04496,-0.00011,-0.05214
1366,26.53428986810038,-0.01411,0.01688,-0.98171,0.04342,0.03259,-0.09199
1367,26.553714677667074,-0.02037,-0.02563,-1.0087,-0.01255,0.00767,-0.05407
1368,26.573139487233764,-0.01975,-0.02558,-1.00505,-0.00682,0.00249,-0.02558
1369,26.592564296800454,-0.01433,0.04076,-0.99867,-0.00488,0.02026,-0.03472
1370,26.611989106367147,-0.01581,0.01711,-0.99862,-0.0036,0.0258,0.00992
1371,26.631413915933837,-0.02722,-0.00558,-1.01544,-0.02778,0.00539,0.04323
1372,26.650838725500527,-0.05037,-0.02729,-1.01912,-0.03483,-0.01656,0.08726
1373,26.67026353506722,-0.04415,0.00359,-1.00645,-0.02635,-0.00786,0.07625
1374,26.68968834463391,-0.02951,0.05139,-1.00366,0.00911,-0.01679,0.01476
1375,26.709113154200605,-0.02533,0.08551,-0.99221,0.02401,-0.01326,-0.04053
1376,26.728537963767295,-0.02281,0.028,-0.99109,0.02168,-0.01023,-0.03005
1377,26.747962773333985,-0.03106,-0.01879,-0.99864,0.00178,0.00662,-0.00915
1378,26.767387582900678,-0.02494,-0.01816,-0.99893,0.00622,0.0153,0.02481
1379,26.78681239246737,-0.01444,0.01615,-1.00017,-0.0037,0.00858,0.01677
1380,26.806237202034062,-0.01012,0.02463,-1.00207,0.00085,0.01102,0.00907
1381,26.825662011600752,-0.00972,0.00485,-1.00192,-0.00658,0.0181,0.0103
1382,26.845086821167442,-0.01799,0.01421,-1.00261,-0.01093,0.01813,0.00267
1383,26.864511630734135,-0.01894,0.01689,-1.00137,-0.00798,0.01912,0.00381
1384,26.883936440300825,-0.02199,0.00361,-1.00266,-0.00776,0.02008,0.00825
1385,26.903361249867515,-0.02219,0.00869,-1.00812,-0.01453,0.00992,0.01267
1386,26.92278605943421,-0.03569,0.00056,-1.00654,-0.01561,0.01209,0.03004
1387,26.9422108690009,-0.05295,-0.01734,-1.00366,-0.02283,0.00942,0.05883
1388,26.96163567856759,-0.05229,0.01831,-1.01554,0.00292,-0.0002,0.02499
1389,26.981060488134283,-0.05602,0.06531,-1.00067,0.00114,0.0017,-0.02891
1390,27.000485297700973,-0.05602,0.06531,-1.00067,0.00114,0.0017,-0.02891
1391,27.019910107267666,-0.05201,-0.0086,-1.00135,-0.00028,0.00148,0.00207
1392,27.039334916834356,-0.04291,-0.0062,-1.00324,0.00206,-0.00038,0.00308
1393,27.058759726401046,-0.03492,0.01637,-1.00214,-0.00391,0.00112,-0.00231
1394,27.07818453596774,-0.03463,0.01391,-1.00336,-0.00331,0.00158,0.00502
1395,27.09760934553443,-0.03218,0.0054,-1.00323,-0.0033,0.00677,0.00819
1396,27.117034155101123,-0.02781,0.01063,-1.00273,-0.0067,0.00641,0.00297
1397,27.136458964667813,-0.02724,0.01205,-1.00349,-0.00526,0.00652,0.00369
1398,27.155883774234503,-0.02693,0.00703,-1.00234,-0.00491,0.00771,0.0075
1399,27.175308583801197,-0.02607,0.01062,-1.00107,-0.0103,0.00782,0.00308
1400,27.194733393367887,-0.024,0.01234,-1.00089,-0.00565,0.00761,0.00595
1401,27.214158202934577,-0.02366,0.01106,-1.00153,-0.01141,0.00756,0.00491
1402,27.23358301250127,-0.02361,0.01069,-1.0007,-0.01246,0.0107,0.00615
1403,27.25300782206796,-0.02343,0.01097,-1.00409,-0.01165,0.00962,0.00689
1404,27.27243263163465,-0.02488,0.0095,-1.00424,-0.01316,0.01009,0.01083
1405,27.291857441201344,-0.02607,0.0099,-1.00208,-0.015,0.0118,0.00718
1406,27.311282250768034,-0.0299,0.01013,-0.99995,-0.01643,0.01379,0.01026
1407,27.330707060334728,-0.03588,0.00971,-0.99941,-0.01621,0.01384,0.01217
1408,27.350131869901418,-0.04129,0.01036,-1.00036,-0.01808,0.01554,0.0108
1409,27.369556679468108,-0.04603,0.01116,-1.001,-0.00866,0.01823,0.01832
1410,27.3889814890348,-0.04297,0.00926,-0.99735,0.01142,0.01544,0.03167
1411,27.40840629860149,-0.03305,-0.00221,-1.00423,0.01468,0.01193,0.04683
1412,27.427831108168185,-0.01049,0.03265,-1.01722,-0.00074,-0.00445,-0.02246
1413,27.447255917734875,-0.02182,0.08506,-1.00982,-0.0154,0.00178,-0.05329
1414,27.466680727301565,-0.03519,0.1065,-0.98249,-0.09637,0.028,0.06336
1415,27.48610553686826,-0.02415,0.21219,-1.01678,-0.0599,-0.00731,0.03889
1416,27.50553034643495,-0.02758,0.26017,-1.05808,0.00487,-0.07128,0.07674
1417,27.52495515600164,-0.04422,0.26524,-0.95078,0.01662,0.05233,0.07054
1418,27.544379965568332,-0.00833,0.32071,-0.90462,-0.06878,0.09381,-0.04403
1419,27.563804775135022,-0.02047,0.33834,-1.16229,0.00479,-0.09791,0.01875
1420,27.583229584701712,0.0478,0.26054,-0.89416,-0.05371,0.11158,-0.1307
1421,27.602654394268406,0.0478,0.26054,-0.89416,-0.05371,0.11158,-0.1307
1422,27.622079203835096,0.00567,0.00528,-0.97439,-0.04018,0.15059,0.08561
1423,27.64150401340179,0.07122,0.18988,-0.90971,-0.07522,0.10563,-0.04937
1424,27.66092882296848,0.04713,0.11523,-1.07767,0.16294,-0.06644,-0.04995
1425,27.68035363253517,0.03711,0.10118,-1.01,0.0356,-0.0395,0.00224
1426,27.699778442101863,0.02051,0.18043,-0.96972,-0.02767,0.02841,0.02209
1427,27.719203251668553,-0.00782,0.10462,-1.02646,-0.04931,0.09581,0.06376
1428,27.738628061235246,0.00846,0.28553,-1.00832,-0.06466,-0.02762,-0.05668
1429,27.758052870801937,-0.03498,0.11698,-1.00433,-0.21684,0.1179,0.12343
1430,27.777477680368627,-0.01444,0.25072,-0.9724,-0.0631,0.02946,-0.02176
1431,27.79690248993532,-0.03114,0.21115,-1.02953,0.36549,-0.08199,0.04128
1432,27.81632729950201,-0.02808,0.18077,-0.97852,0.00619,0.11131,0.01567
1433,27.8357521090687,-0.00481,0.2026,-0.96491,0.04975,0.11686,-0.02137
1434,27.855176918635394,0.0012,0.17451,-1.0599,0.15649,-0.16722,-0.03926
1435,27.874601728202084,-0.00858,0.14372,-1.0265,0.0322,0.02328,0.03589
1436,27.894026537768774,0.00979,0.19615,-0.96229,0.13164,0.05169,-0.01846
1437,27.913451347335467,0.00202,0.16849,-0.99813,0.25944,-0.05794,0.02549
1438,27.932876156902157,-0.00324,0.12553,-1.03281,-0.36784,0.01464,-0.00384
1439,27.95230096646885,0.02403,0.16291,-1.01259,-0.19741,-0.13701,-0.01336
1440,27.97172577603554,-0.006,0.14282,-0.99724,0.04666,-0.0402,0.01693
1441,27.99115058560223,-0.00444,0.17407,-0.98422,0.22134,-0.00449,0.01735
1442,28.010575395168924,-0.02041,0.15623,-0.97733,0.17344,0.0649,0.02921
1443,28.030000204735614,-0.03068,0.15042,-0.97619,-0.02788,0.11655,0.04413
1444,28.049425014302308,-0.02779,0.17374,-1.04113,-0.23337,0.01476,-0.01161
1445,28.068849823868998,-0.02428,0.12613,-0.98406,-0.74795,-0.16343,-0.00103
1446,28.088274633435688,-0.01871,0.16332,-1.09991,-0.66656,-0.0904,0.01339
1447,28.10769944300238,-0.0157,0.14313,-1.02841,-0.55491,-0.05565,-0.03877
1448,28.12712425256907,-0.02262,0.12373,-1.04015,-0.41773,0.02546,0.01505
1449,28.14654906213576,0.00272,0.12647,-1.01037,-0.32738,0.0068,-0.03705
1450,28.165973871702455,-0.00447,0.10502,-1.06795,-0.2717,0.00467,-0.00813
1451,28.185398681269145,0.0123,0.0783,-0.95131,0.14199,-0.18946,-0.04849
1452,28.204823490835835,-0.00509,0.04095,-1.05181,0.05753,-0.0264,0.07014
1453,28.22424830040253,-0.00509,0.04095,-1.05181,0.05753,-0.0264,0.07014
1454,28.24367310996922,0.02124,-0.12624,-0.99677,-0.18263,0.10683,0.01726
1455,28.263097919535912,0.00194,-0.24517,-1.1052,-0.11902,-0.09317,0.00777
1456,28.282522729102602,-0.00324,-0.24735,-1.0737,-0.06058,-0.28387,-0.0224
1457,28.301947538669292,-0.02534,-0.2376,-0.88738,0.02443,0.08466,-0.15101
1458,28.321372348235986,-0.05841,-0.32559,-1.02636,0.05754,0.0883,-0.00871
1459,28.340797157802676,-0.03998,-0.31804,-1.06615,0.08855,-0.05813,0.11275
1460,28.36022196736937,-0.02007,-0.20608,-0.91306,0.08418,0.02187,0.01654
1461,28.37964677693606,-0.02823,-0.138,-1.05109,-0.21688,0.20636,0.00684
1462,28.39907158650275,0.0077,-0.14355,-1.08669,-0.11315,-0.18856,0.10087
1463,28.418496396069443,0.02126,-0.05577,-0.90571,0.10886,-0.0583,0.01052
1464,28.437921205636133,-0.00203,-0.08637,-1.01253,0.14815,0.27564,0.04011
1465,28.457346015202823,0.04865,-0.07096,-1.06249,-0.04246,-0.24171,0.02039
1466,28.476770824769517,0.02929,-0.06567,-0.93247,-0.02359,0.00912,-0.05543
1467,28.496195634336207,-0.0249,-0.17905,-1.06411,-0.06318,-0.00354,0.06985
1468,28.515620443902897,0.02713,-0.10772,-0.9641,0.05035,-0.01484,-0.01285
1469,28.53504525346959,-0.05179,-0.18453,-1.05748,0.03463,0.09201,0.02994
1470,28.55447006303628,0.00767,-0.13182,-0.95103,0.06162,-0.0499,-3e-05
1471,28.573894872602974,-0.06242,-0.22622,-1.00987,0.02715,0.12939,0.07305
1472,28.593319682169664,0.00419,-0.08904,-0.95612,0.11908,0.00109,-0.02301
1473,28.612744491736354,-0.04758,-0.18146,-1.07316,0.03387,0.11525,0.03842
1474,28.632169301303048,0.02405,-0.06275,-0.91579,0.08824,0.01584,0.01834
1475,28.651594110869738,-0.02032,-0.1352,-1.10071,0.0143,-0.06476,0.10647
1476,28.67101892043643,0.03963,-0.03634,-1.05131,0.1552,-0.13532,-0.01418
1477,28.69044373000312,-0.02716,-0.10963,-0.98477,-0.16699,0.15822,0.10853
1478,28.70986853956981,0.05316,0.01363,-0.97777,-0.06016,0.02702,-0.10096
1479,28.729293349136505,-0.03327,-0.13924,-1.08034,0.09511,-0.13465,0.06899
1480,28.748718158703195,-0.01054,-0.09219,-0.9208,-0.19012,0.07998,-0.01283
1481,28.768142968269885,-0.00054,-0.07637,-1.03246,0.05103,-0.01211,-0.06973
1482,28.78756777783658,-0.07956,-0.23577,-1.05408,0.10805,-0.12376,0.16754
1483,28.80699258740327,-0.00092,-0.08832,-0.92467,-0.16492,0.12477,-0.08674
1484,28.82641739696996,0.02652,-0.03207,-1.00173,-0.01875,0.04926,-0.12256
1485,28.845842206536652,-0.07163,-0.20345,-1.05379,0.11748,-0.0936,0.14907
1486,28.865267016103342,-0.03466,-0.13255,-1.02473,-0.22784,0.07062,0.11205
1487,28.884691825670036,0.05833,-0.00472,-0.94785,-0.03107,0.01053,-0.05491
1488,28.904116635236726,0.01188,-0.14274,-0.99724,0.09127,0.00129,0.02133
1489,28.923541444803416,0.01452,-0.1189,-1.05784,-0.047,-0.05677,0.06201
1490,28.94296625437011,0.01812,-0.13667,-1.02553,-0.02789,-0.04261,0.10702
1491,28.9623910639368,-0.00236,-0.10272,-0.99293,-0.03519,-0.02126,0.08966
1492,28.981815873503493,0.02948,0.10208,-0.9554,-0.10843,0.06047,-0.17216
1493,29.001240683070183,0.02185,0.1281,-0.98977,0.01724,0.03177,-0.2049
1494,29.020665492636873,-0.06069,-0.01521,-1.02259,0.02763,-0.03279,-0.07304
1495,29.040090302203566,-0.08065,-0.03705,-1.0318,0.0,-0.07317,0.05411
1496,29.059515111770256,-0.08734,-0.05224,-1.0249,-0.02149,-0.02812,0.11427
1497,29.078939921336946,0.01759,0.0303,-0.94526,-0.09944,0.16139,-0.0813
1498,29.09836473090364,0.03112,-0.01154,-1.0369,-0.00505,0.0623,-0.12329
1499,29.11778954047033,0.00765,-0.15891,-1.02467,0.0775,-0.00574,0.05072
1500,29.13721435003702,0.02029,-0.16718,-1.01307,0.0029,0.01036,0.10495
1501,29.156639159603714,0.03646,-0.12072,-1.01348,0.01857,-0.03661,0.10307
1502,29.176063969170404,-0.00799,-0.11702,-1.01267,-0.04094,-0.03787,0.12059
1503,29.195488778737097,-0.02003,-0.08725,-0.99415,-0.01439,-0.0057,0.17848
1504,29.214913588303787,-0.01043,-0.0958,-0.97818,-0.00936,0.00688,0.24905
1505,29.234338397870477,-0.02445,-0.08339,-0.99969,-0.00896,-0.00897,0.28584
1506,29.25376320743717,0.00275,-0.05885,-1.0005,-0.01699,0.02849,0.25276
1507,29.27318801700386,0.02027,-0.0604,-0.996,-0.00476,0.03417,0.23725
1508,29.292612826570554,0.00934,-0.04875,-1.00492,-0.0184,0.0105,0.20452
1509,29.312037636137244,0.01375,-0.04122,-1.00138,-0.01521,0.01851,0.18437
1510,29.331462445703934,0.01925,-0.0028,-1.00211,-0.01848,0.00241,0.10848
1511,29.350887255270628,0.02176,0.0236,-1.00066,-0.01211,0.0033,0.02405
1512,29.370312064837318,0.02252,0.02528,-0.99951,-0.01431,-0.00077,-0.02911
1513,29.389736874404008,0.01682,0.00569,-1.00193,-0.0066,0.00302,-0.02215
1514,29.4091616839707,0.00477,-0.00891,-1.00268,-0.01016,-0.00268,0.00608
1515,29.42858649353739,-0.00264,0.00463,-1.00234,-0.01336,0.00994,0.03121
1516,29.44801130310408,0.00164,0.01198,-1.00027,-0.00884,0.01259,0.02998
1517,29.467436112670775,0.00035,0.0117,-1.00307,-0.01542,0.01258,0.00799
1518,29.486860922237465,-0.00434,0.00804,-1.00558,-0.01462,0.01226,-0.00436
1519,29.50628573180416,-0.00997,0.01322,-1.00469,-0.00848,0.01367,0.002
1520,29.52571054137085,-0.01571,0.00876,-1.00775,0.00013,-0.00384,0.00344
1521,29.54513535093754,-0.03115,0.03309,-1.00226,0.01452,-0.00483,-0.04257
1522,29.564560160504232,-0.04319,0.0101,-1.00287,0.00185,-0.0094,-0.02928
1523,29.583984970070922,-0.06321,-0.0289,-1.00249,0.00056,0.00466,0.00507
1524,29.603409779637616,-0.05723,-0.02987,-0.99754,-0.00064,0.0102,0.02365
1525,29.622834589204306,-0.04708,0.00917,-1.00213,-0.00822,0.01156,0.01934
1526,29.642259398770996,-0.04277,0.0242,-1.00214,-0.00625,0.00834,0.00765
1527,29.66168420833769,-0.04055,0.00749,-1.0013,-0.00572,0.00935,0.00843
1528,29.68110901790438,-0.04016,0.0019,-1.00144,-0.00664,0.00627,0.00653
1529,29.70053382747107,-0.03762,0.0109,-1.00078,-0.00669,0.0078,0.00569
1530,29.719958637037763,-0.03681,0.00897,-1.00066,-0.00413,0.0078,0.0067
1531,29.739383446604453,-0.03656,0.00309,-1.00237,-0.00286,0.0112,0.00883
1532,29.758808256171143,-0.03342,0.00794,-1.00145,-0.00402,0.01111,0.00398
1533,29.778233065737837,-0.0332,0.00863,-1.00076,-0.00269,0.00992,0.00433
1534,29.797657875304527,-0.03332,0.00481,-1.00316,-0.00555,0.00946,0.00741
1535,29.81708268487122,-0.03253,0.0058,-1.00258,-0.00566,0.0103,0.00471
1536,29.83650749443791,-0.03337,0.00766,-0.99947,-0.00995,0.01163,0.00696
1537,29.8559323040046,-0.03132,0.00738,-1.00052,-0.01385,0.01651,0.00064
1538,29.875357113571294,-0.02364,0.01695,-1.00382,-0.02278,0.01729,-0.01111
1539,29.894781923137984,-0.01665,0.02855,-1.00312,-0.03491,0.02098,-0.03583
1540,29.914206732704677,-0.01376,0.02811,-1.00491,-0.0132,0.01833,-0.04199
1541,29.933631542271367,-0.00443,-0.008,-1.00627,0.00181,0.00839,-0.01209
1542,29.953056351838057,0.0041,-0.02392,-1.00396,-0.00057,0.00068,0.00412
1543,29.97248116140475,0.00746,-0.0097,-1.00035,-0.00706,0.00326,0.01307
1544,29.99190597097144,0.01036,0.02389,-1.00132,-0.00097,0.00312,0.00132
1545,30.01133078053813,0.00934,0.01355,-1.00187,-0.00283,0.00642,0.0042
1546,30.030755590104825,0.00933,-0.00283,-1.00208,-0.00603,0.00613,0.00905
1547,30.050180399671515,0.01222,0.00342,-1.00198,-0.00484,0.00696,0.00904
1548,30.069605209238205,0.01246,0.0159,-1.00256,-0.00268,0.00768,0.00327
1549,30.0890300188049,0.01114,0.00577,-1.00359,-0.00454,0.00472,0.00642
1550,30.10845482837159,0.01145,0.00188,-1.00278,-0.0055,0.00625,0.00853
1551,30.127879637938282,0.0111,0.01238,-1.00231,-0.00587,0.00779,0.00379
1552,30.147304447504972,0.00601,0.00512,-1.004,-0.0037,5e-05,0.00434
1553,30.166729257071662,-0.07685,0.03835,-1.01259,-0.0158,-0.03249,-0.0094
1554,30.186154066638355,-0.20518,0.03926,-1.02786,0.02797,-0.07675,0.0377
1555,30.205578876205045,-0.2832,0.0272,-0.99783,0.03236,-0.00103,0.0142
1556,30.22500368577174,-0.28633,0.04039,-1.0021,0.02724,0.0028,-0.06413
1557,30.24442849533843,-0.29682,-0.00766,-0.96055,0.00916,0.01329,0.01626
1558,30.26385330490512,-0.33239,0.03045,-1.00874,0.14746,-0.0797,-0.11585
1559,30.283278114471813,-0.31345,-0.03235,-0.9581,0.07231,0.05095,0.07407
1560,30.302702924038503,-0.28228,-0.0801,-1.04126,-0.12982,0.01838,0.13222
1561,30.322127733605193,-0.15296,0.04618,-0.95734,0.12296,0.01596,-0.00185
1562,30.341552543171886,-0.1011,0.00223,-1.04376,0.02149,-0.0345,-0.01396
1563,30.360977352738576,-0.09354,0.02337,-1.02539,-0.23414,0.05866,0.02667
1564,30.380402162305266,-0.05924,0.04008,-0.99443,0.0012,0.04196,-0.07893
1565,30.39982697187196,-0.11598,-0.09352,-1.02015,0.10584,-0.07125,0.1119
1566,30.41925178143865,-0.10727,0.03264,-1.01287,-0.18816,0.0077,0.03258
1567,30.438676591005343,-0.13168,0.1192,-0.98329,0.10428,-0.07357,-0.12613
1568,30.458101400572033,-0.23821,-0.15679,-1.02033,0.08194,-0.04429,0.213
1569,30.477526210138723,-0.23872,0.03068,-0.99332,0.05417,0.02105,0.0212
1570,30.496951019705417,-0.22121,0.08298,-0.98065,-0.05288,0.11154,-0.06258
1571,30.516375829272107,-0.27116,-0.00596,-0.98946,0.03383,0.04624,0.02181
1572,30.5358006388388,-0.25616,-0.06883,-0.98551,-0.01551,0.12175,0.08149
1573,30.55522544840549,-0.19663,0.01697,-1.01986,-0.00717,-0.047,0.00055
1574,30.57465025797218,-0.19208,-0.0895,-1.01237,-0.18894,0.02084,0.08756
1575,30.594075067538874,-0.14774,0.02583,-0.96728,0.05234,0.08939,-0.04633
1576,30.613499877105564,-0.14225,0.0326,-1.04998,0.15535,-0.14045,-0.00717
1577,30.632924686672254,-0.15719,-0.02083,-1.01777,-0.229,0.03789,0.02458
1578,30.652349496238948,-0.17779,0.01689,-0.96317,0.03638,0.14337,0.00386
1579,30.671774305805638,-0.14923,0.046,-1.00606,0.21115,0.04017,-0.04668
1580,30.691199115372328,-0.13181,0.00112,-1.02714,0.12495,-0.14055,0.01682
1581,30.71062392493902,-0.17899,-0.00722,-1.05307,-0.09111,-0.10369,-0.00958
1582,30.73004873450571,-0.16231,-0.05502,-0.99682,-0.06676,-0.06359,0.0855
1583,30.749473544072405,-0.17089,0.03143,-0.94451,-0.1382,0.07044,-0.04478
1584,30.768898353639095,-0.19305,0.0328,-1.01867,0.12332,0.01523,-0.06652
1585,30.788323163205785,-0.20489,-0.01433,-0.99359,0.24521,-0.0475,-0.02115
1586,30.80774797277248,-0.21512,0.01291,-1.01322,0.2197,-0.10155,0.01917
1587,30.82717278233917,-0.18963,0.00881,-0.96147,0.32672,-0.19051,0.02075
1588,30.846597591905862,-0.17249,0.03455,-1.0057,0.3619,-0.19212,-0.00708
1589,30.866022401472552,-0.14979,0.04182,-0.99891,0.35321,-0.12467,-0.01689
1590,30.885447211039242,-0.10572,0.0217,-1.02159,0.37118,-0.13599,0.00424
1591,30.904872020605936,-0.12614,0.00811,-1.0001,0.47807,-0.1729,0.03058
1592,30.924296830172626,-0.09913,0.04661,-0.99379,0.39675,0.03663,-0.0199
1593,30.943721639739316,-0.03634,0.04088,-0.96848,0.28976,0.08143,-0.01775
1594,30.96314644930601,0.006,-0.0173,-1.00021,0.31564,0.11238,0.05489
1595,30.9825712588727,0.1499,0.01508,-0.99299,0.25091,0.1131,0.08202
1596,31.00199606843939,0.26802,0.01928,-0.98488,0.29504,0.06905,0.05581
1597,31.021420878006083,0.31312,0.0198,-1.03146,0.24926,-0.02039,0.02189
1598,31.040845687572773,0.32208,0.02493,-1.02243,0.19333,-0.00563,0.05406
1599,31.060270497139467,0.3043,0.03053,-0.89915,0.15537,-0.02929,0.04971
1600,31.079695306706157,0.31588,0.00724,-1.0488,-0.02434,0.11408,0.01265
1601,31.099120116272847,0.30077,0.03329,-1.05853,-0.07425,0.00658,-0.08684
1602,31.11854492583954,0.1307,-0.01736,-0.99839,-0.04895,0.14981,-0.00969
1603,31.13796973540623,0.109,-0.03675,-1.07913,0.00136,-0.02597,0.03218
1604,31.157394544972924,0.0809,0.04225,-0.95853,-0.00082,-0.12661,-0.03296
1605,31.176819354539614,0.03875,-0.01803,-0.99389,-0.29942,0.16507,-0.00307
1606,31.196244164106304,0.07329,-0.03021,-1.14413,-0.04752,-0.11436,0.04547
1607,31.215668973672997,0.11233,0.05465,-0.84373,0.00729,-0.06739,-0.04846
1608,31.235093783239687,0.1153,-0.01175,-1.03927,0.02999,0.17587,0.0643
1609,31.254518592806377,0.21216,-0.00641,-1.04548,-0.0105,0.00502,0.02874
1610,31.27394340237307,0.19203,0.06049,-0.87503,-0.08474,0.2153,-0.02606
1611,31.29336821193976,0.26603,-0.01332,-1.16507,0.04813,-0.16802,0.07655
1612,31.31279302150645,0.26603,-0.01332,-1.16507,0.04813,-0.16802,0.07655
1613,31.332217831073145,0.2441,0.0523,-1.18038,-0.08748,-0.21254,-0.00897
1614,31.351642640639835,0.2441,0.0523,-1.18038,-0.08748,-0.21254,-0.00897
1615,31.371067450206528,0.11936,0.02706,-1.04367,0.00307,-0.0309,0.01022
1616,31.390492259773218,0.04158,-0.0055,-1.08984,0.06589,-0.19278,0.05423
1617,31.409917069339908,0.00145,0.01132,-0.8691,0.08258,-0.12985,-0.02106
1618,31.4293418789066,-0.01748,0.02383,-1.13319,0.08448,-0.14813,0.02209
1619,31.44876668847329,-0.04898,-0.0061,-0.89077,0.0752,0.16351,0.04455
1620,31.468191498039985,0.03862,0.0381,-0.97929,-0.00637,0.09129,-0.04395
1621,31.487616307606675,0.04204,-0.04365,-1.15393,-0.02317,-0.13075,0.04365
1622,31.507041117173365,0.10531,-0.00322,-0.78796,-0.03849,0.22564,0.01072
1623,31.52646592674006,0.17005,0.01602,-1.12287,-0.07203,0.00843,0.08901
1624,31.54589073630675,0.18744,0.01257,-1.06341,-0.01012,-0.06061,0.04733
1625,31.56531554587344,0.25431,0.04749,-0.82773,-0.02886,0.14844,-0.01507
1626,31.584740355440132,0.24186,0.04302,-1.07919,-0.08153,0.01796,-0.01371
1627,31.604165165006822,0.21153,-0.04315,-1.07349,0.02502,-0.08809,0.06246
1628,31.623589974573513,0.18446,0.03432,-0.97777,-0.01647,-0.09705,-0.02144
1629,31.643014784140206,0.10724,0.02455,-0.98684,-0.01128,0.00168,0.01095
1630,31.662439593706896,0.00224,-0.02388,-0.94705,-0.00167,0.01737,0.01487
1631,31.68186440327359,-0.08581,0.03003,-1.02433,-0.01465,-0.03828,-0.06338
